#
# Results on Monday December 04 2017 15:09:40 UTC.
# USER AGENT: Mozilla/5.0 (Windows NT 10.0; Win64; x64) AppleWebKit/537.36 (KHTML, like Gecko) Chrome/62.0.3202.94 Safari/537.36
# Design number was non-random = 5
#
# Columns below this comment are as follows:
# 1. Time results were received.
# 2. MD5 hash of participant's IP address.
# 3. Controller name.
# 4. Item number.
# 5. Element number.
# 6. Type.
# 7. Group.
# 8. Field name.
# 9. Field value.
1512400181,db217f722ff04706309805a1bed8ff84,Form,0,0,intro,NULL,_REACTION_TIME_,3503
1512400181,db217f722ff04706309805a1bed8ff84,Form,24,0,image,NULL,imageLabel3680685,tamborine
1512400181,db217f722ff04706309805a1bed8ff84,Form,24,0,image,NULL,_REACTION_TIME_,6931
1512400181,db217f722ff04706309805a1bed8ff84,Form,149,0,image,NULL,imageLabel3682968,lawn mower
1512400181,db217f722ff04706309805a1bed8ff84,Form,149,0,image,NULL,_REACTION_TIME_,5846
1512400181,db217f722ff04706309805a1bed8ff84,Form,206,0,image,NULL,imageLabel3683322,owl
1512400181,db217f722ff04706309805a1bed8ff84,Form,206,0,image,NULL,_REACTION_TIME_,1940
1512400181,db217f722ff04706309805a1bed8ff84,Form,207,0,image,NULL,imageLabel3683334,printer
1512400181,db217f722ff04706309805a1bed8ff84,Form,207,0,image,NULL,_REACTION_TIME_,2233
1512400181,db217f722ff04706309805a1bed8ff84,Form,116,0,image,NULL,imageLabel3681498,ring
1512400181,db217f722ff04706309805a1bed8ff84,Form,116,0,image,NULL,_REACTION_TIME_,2639
1512400181,db217f722ff04706309805a1bed8ff84,Form,211,0,image,NULL,imageLabel3683373,typewriter
1512400181,db217f722ff04706309805a1bed8ff84,Form,211,0,image,NULL,_REACTION_TIME_,13036
1512400181,db217f722ff04706309805a1bed8ff84,Form,114,0,image,NULL,imageLabel3681471,tank
1512400181,db217f722ff04706309805a1bed8ff84,Form,114,0,image,NULL,_REACTION_TIME_,2128
1512400181,db217f722ff04706309805a1bed8ff84,Form,34,0,image,NULL,imageLabel3680733,flower
1512400181,db217f722ff04706309805a1bed8ff84,Form,34,0,image,NULL,_REACTION_TIME_,2220
1512400181,db217f722ff04706309805a1bed8ff84,Form,177,0,image,NULL,imageLabel3683118,clarinet
1512400181,db217f722ff04706309805a1bed8ff84,Form,177,0,image,NULL,_REACTION_TIME_,5434
1512400181,db217f722ff04706309805a1bed8ff84,Form,52,0,image,NULL,imageLabel3680880,chainsaw
1512400181,db217f722ff04706309805a1bed8ff84,Form,52,0,image,NULL,_REACTION_TIME_,4419
1512400181,db217f722ff04706309805a1bed8ff84,Form,214,0,image,NULL,imageLabel3683403,raspberry
1512400181,db217f722ff04706309805a1bed8ff84,Form,214,0,image,NULL,_REACTION_TIME_,64327
1512400181,db217f722ff04706309805a1bed8ff84,Form,33,0,image,NULL,imageLabel3680724,screwdriver
1512400181,db217f722ff04706309805a1bed8ff84,Form,33,0,image,NULL,_REACTION_TIME_,3649
1512400181,db217f722ff04706309805a1bed8ff84,Form,219,0,image,NULL,imageLabel3683448,spaghetti
1512400181,db217f722ff04706309805a1bed8ff84,Form,219,0,image,NULL,_REACTION_TIME_,3571
1512400181,db217f722ff04706309805a1bed8ff84,Form,69,0,image,NULL,imageLabel3681012,rat
1512400181,db217f722ff04706309805a1bed8ff84,Form,69,0,image,NULL,_REACTION_TIME_,3626
1512400181,db217f722ff04706309805a1bed8ff84,Form,250,0,image,NULL,imageLabel3683736,parrot
1512400181,db217f722ff04706309805a1bed8ff84,Form,250,0,image,NULL,_REACTION_TIME_,3220
1512400181,db217f722ff04706309805a1bed8ff84,Form,245,0,image,NULL,imageLabel3683682,planner
1512400181,db217f722ff04706309805a1bed8ff84,Form,245,0,image,NULL,_REACTION_TIME_,4152
1512400181,db217f722ff04706309805a1bed8ff84,Form,204,0,image,NULL,imageLabel3683316,feather
1512400181,db217f722ff04706309805a1bed8ff84,Form,204,0,image,NULL,_REACTION_TIME_,3600
1512400181,db217f722ff04706309805a1bed8ff84,Form,155,0,image,NULL,imageLabel3682992,basket
1512400181,db217f722ff04706309805a1bed8ff84,Form,155,0,image,NULL,_REACTION_TIME_,4195
1512400181,db217f722ff04706309805a1bed8ff84,Form,220,0,image,NULL,imageLabel3683451,pillow
1512400181,db217f722ff04706309805a1bed8ff84,Form,220,0,image,NULL,_REACTION_TIME_,2904
1512400181,db217f722ff04706309805a1bed8ff84,Form,252,0,image,NULL,imageLabel3683742,shell
1512400181,db217f722ff04706309805a1bed8ff84,Form,252,0,image,NULL,_REACTION_TIME_,10996
1512400181,db217f722ff04706309805a1bed8ff84,Form,274,0,image,NULL,imageLabel3684027,package
1512400181,db217f722ff04706309805a1bed8ff84,Form,274,0,image,NULL,_REACTION_TIME_,2203
1512400181,db217f722ff04706309805a1bed8ff84,Form,93,0,image,NULL,imageLabel3681177,bike
1512400181,db217f722ff04706309805a1bed8ff84,Form,93,0,image,NULL,_REACTION_TIME_,2031
1512400181,db217f722ff04706309805a1bed8ff84,Form,281,0,image,NULL,imageLabel3684081,hat
1512400181,db217f722ff04706309805a1bed8ff84,Form,281,0,image,NULL,_REACTION_TIME_,1659
1512400181,db217f722ff04706309805a1bed8ff84,Form,267,0,image,NULL,imageLabel3683976,keyboard
1512400181,db217f722ff04706309805a1bed8ff84,Form,267,0,image,NULL,_REACTION_TIME_,3532
1512400181,db217f722ff04706309805a1bed8ff84,Form,109,0,image,NULL,imageLabel3681378,slingshot
1512400181,db217f722ff04706309805a1bed8ff84,Form,109,0,image,NULL,_REACTION_TIME_,3262
1512400181,db217f722ff04706309805a1bed8ff84,Form,152,0,image,NULL,imageLabel3682977,caramel
1512400181,db217f722ff04706309805a1bed8ff84,Form,152,0,image,NULL,_REACTION_TIME_,2762
1512400181,db217f722ff04706309805a1bed8ff84,Form,172,0,image,NULL,imageLabel3683100,ball
1512400181,db217f722ff04706309805a1bed8ff84,Form,172,0,image,NULL,_REACTION_TIME_,4114
1512400181,db217f722ff04706309805a1bed8ff84,Form,257,0,image,NULL,imageLabel3683787,racket
1512400181,db217f722ff04706309805a1bed8ff84,Form,257,0,image,NULL,_REACTION_TIME_,3234
1512400181,db217f722ff04706309805a1bed8ff84,Form,182,0,image,NULL,imageLabel3683142,candle
1512400181,db217f722ff04706309805a1bed8ff84,Form,182,0,image,NULL,_REACTION_TIME_,2548
1512400181,db217f722ff04706309805a1bed8ff84,Form,107,0,image,NULL,imageLabel3681357,bat
1512400181,db217f722ff04706309805a1bed8ff84,Form,107,0,image,NULL,_REACTION_TIME_,2027
1512400181,db217f722ff04706309805a1bed8ff84,Form,262,0,image,NULL,imageLabel3683880,snowboard
1512400181,db217f722ff04706309805a1bed8ff84,Form,262,0,image,NULL,_REACTION_TIME_,3102
1512400181,db217f722ff04706309805a1bed8ff84,Form,62,0,image,NULL,imageLabel3680943,lobster
1512400181,db217f722ff04706309805a1bed8ff84,Form,62,0,image,NULL,_REACTION_TIME_,3281
1512400181,db217f722ff04706309805a1bed8ff84,Form,30,0,image,NULL,imageLabel3680712,saxophone
1512400181,db217f722ff04706309805a1bed8ff84,Form,30,0,image,NULL,_REACTION_TIME_,5569
1512400181,db217f722ff04706309805a1bed8ff84,Form,118,0,image,NULL,imageLabel3681519,thermometer
1512400181,db217f722ff04706309805a1bed8ff84,Form,118,0,image,NULL,_REACTION_TIME_,4962
1512400181,db217f722ff04706309805a1bed8ff84,Form,253,0,image,NULL,imageLabel3683754,bullet
1512400181,db217f722ff04706309805a1bed8ff84,Form,253,0,image,NULL,_REACTION_TIME_,2109
1512400181,db217f722ff04706309805a1bed8ff84,Form,128,0,image,NULL,imageLabel3681630,laddle
1512400181,db217f722ff04706309805a1bed8ff84,Form,128,0,image,NULL,_REACTION_TIME_,4211
1512400181,db217f722ff04706309805a1bed8ff84,Form,162,0,image,NULL,imageLabel3683031,sicle
1512400181,db217f722ff04706309805a1bed8ff84,Form,162,0,image,NULL,_REACTION_TIME_,4123
1512400181,db217f722ff04706309805a1bed8ff84,Form,203,0,image,NULL,imageLabel3683313,sucker
1512400181,db217f722ff04706309805a1bed8ff84,Form,203,0,image,NULL,_REACTION_TIME_,3588
1512400181,db217f722ff04706309805a1bed8ff84,Form,104,0,image,NULL,imageLabel3681333,plant
1512400181,db217f722ff04706309805a1bed8ff84,Form,104,0,image,NULL,_REACTION_TIME_,2682
1512400181,db217f722ff04706309805a1bed8ff84,Form,241,0,image,NULL,imageLabel3683601,hinge
1512400181,db217f722ff04706309805a1bed8ff84,Form,241,0,image,NULL,_REACTION_TIME_,2999
1512400181,db217f722ff04706309805a1bed8ff84,Form,65,0,image,NULL,imageLabel3680976,walnut
1512400181,db217f722ff04706309805a1bed8ff84,Form,65,0,image,NULL,_REACTION_TIME_,3695
1512400181,db217f722ff04706309805a1bed8ff84,Form,201,0,image,NULL,imageLabel3683301,hat
1512400181,db217f722ff04706309805a1bed8ff84,Form,201,0,image,NULL,_REACTION_TIME_,2152
1512400181,db217f722ff04706309805a1bed8ff84,Form,153,0,image,NULL,imageLabel3682983,muffin
1512400181,db217f722ff04706309805a1bed8ff84,Form,153,0,image,NULL,_REACTION_TIME_,2332
1512400181,db217f722ff04706309805a1bed8ff84,Form,264,0,image,NULL,imageLabel3683922,tent
1512400181,db217f722ff04706309805a1bed8ff84,Form,264,0,image,NULL,_REACTION_TIME_,1838
1512400181,db217f722ff04706309805a1bed8ff84,Form,143,0,image,NULL,imageLabel3681729,snail
1512400181,db217f722ff04706309805a1bed8ff84,Form,143,0,image,NULL,_REACTION_TIME_,2004
1512400181,db217f722ff04706309805a1bed8ff84,Form,97,0,image,NULL,imageLabel3681240,bike
1512400181,db217f722ff04706309805a1bed8ff84,Form,97,0,image,NULL,_REACTION_TIME_,2187
1512400181,db217f722ff04706309805a1bed8ff84,Form,150,0,image,NULL,imageLabel3682971,cat
1512400181,db217f722ff04706309805a1bed8ff84,Form,150,0,image,NULL,_REACTION_TIME_,1690
1512400181,db217f722ff04706309805a1bed8ff84,Form,106,0,image,NULL,imageLabel3681348,gun
1512400181,db217f722ff04706309805a1bed8ff84,Form,106,0,image,NULL,_REACTION_TIME_,1749
1512400181,db217f722ff04706309805a1bed8ff84,Form,243,0,image,NULL,imageLabel3683619,bowtie
1512400181,db217f722ff04706309805a1bed8ff84,Form,243,0,image,NULL,_REACTION_TIME_,2836
1512400181,db217f722ff04706309805a1bed8ff84,Form,186,0,image,NULL,imageLabel3683169,dustpan
1512400181,db217f722ff04706309805a1bed8ff84,Form,186,0,image,NULL,_REACTION_TIME_,3011
1512400181,db217f722ff04706309805a1bed8ff84,Form,103,0,image,NULL,imageLabel3681330,cage
1512400181,db217f722ff04706309805a1bed8ff84,Form,103,0,image,NULL,_REACTION_TIME_,2380
1512400181,db217f722ff04706309805a1bed8ff84,Form,216,0,image,NULL,imageLabel3683418,trap
1512400181,db217f722ff04706309805a1bed8ff84,Form,216,0,image,NULL,_REACTION_TIME_,3604
1512400181,db217f722ff04706309805a1bed8ff84,Form,54,0,image,NULL,imageLabel3680895,cane
1512400181,db217f722ff04706309805a1bed8ff84,Form,54,0,image,NULL,_REACTION_TIME_,1810
1512400181,db217f722ff04706309805a1bed8ff84,Form,282,0,image,NULL,imageLabel3684084,trumpet
1512400181,db217f722ff04706309805a1bed8ff84,Form,282,0,image,NULL,_REACTION_TIME_,3845
1512400181,db217f722ff04706309805a1bed8ff84,Form,129,0,image,NULL,imageLabel3681636,donkey
1512400181,db217f722ff04706309805a1bed8ff84,Form,129,0,image,NULL,_REACTION_TIME_,2711
1512400181,db217f722ff04706309805a1bed8ff84,Form,26,0,image,NULL,imageLabel3680697,cup
1512400181,db217f722ff04706309805a1bed8ff84,Form,26,0,image,NULL,_REACTION_TIME_,2010
1512400181,db217f722ff04706309805a1bed8ff84,Form,137,0,image,NULL,imageLabel3681696,chest
1512400181,db217f722ff04706309805a1bed8ff84,Form,137,0,image,NULL,_REACTION_TIME_,2707
1512400181,db217f722ff04706309805a1bed8ff84,Form,13,0,image,NULL,imageLabel3680616,tank
1512400181,db217f722ff04706309805a1bed8ff84,Form,13,0,image,NULL,_REACTION_TIME_,1848
1512400181,db217f722ff04706309805a1bed8ff84,Form,174,0,image,NULL,imageLabel3683106,sea horse
1512400181,db217f722ff04706309805a1bed8ff84,Form,174,0,image,NULL,_REACTION_TIME_,3232
1512400181,db217f722ff04706309805a1bed8ff84,Form,200,0,image,NULL,imageLabel3683289,cigar
1512400181,db217f722ff04706309805a1bed8ff84,Form,200,0,image,NULL,_REACTION_TIME_,2582
1512400181,db217f722ff04706309805a1bed8ff84,Form,293,0,image,NULL,imageLabel3684150,bike
1512400181,db217f722ff04706309805a1bed8ff84,Form,293,0,image,NULL,_REACTION_TIME_,4882
1512400181,db217f722ff04706309805a1bed8ff84,Form,151,0,image,NULL,imageLabel3682974,egg
1512400181,db217f722ff04706309805a1bed8ff84,Form,151,0,image,NULL,_REACTION_TIME_,1880
1512400181,db217f722ff04706309805a1bed8ff84,Form,64,0,image,NULL,imageLabel3680967,book
1512400181,db217f722ff04706309805a1bed8ff84,Form,64,0,image,NULL,_REACTION_TIME_,92919
1512400181,db217f722ff04706309805a1bed8ff84,Form,145,0,image,NULL,imageLabel3681738,shark
1512400181,db217f722ff04706309805a1bed8ff84,Form,145,0,image,NULL,_REACTION_TIME_,2008
1512400181,db217f722ff04706309805a1bed8ff84,Form,11,0,image,NULL,imageLabel3680604,train
1512400181,db217f722ff04706309805a1bed8ff84,Form,11,0,image,NULL,_REACTION_TIME_,2090
1512400181,db217f722ff04706309805a1bed8ff84,Form,42,0,image,NULL,imageLabel3680793,cow
1512400181,db217f722ff04706309805a1bed8ff84,Form,42,0,image,NULL,_REACTION_TIME_,1611
1512400181,db217f722ff04706309805a1bed8ff84,Form,231,0,image,NULL,imageLabel3683517,backpack
1512400181,db217f722ff04706309805a1bed8ff84,Form,231,0,image,NULL,_REACTION_TIME_,2374
1512400181,db217f722ff04706309805a1bed8ff84,Form,269,0,image,NULL,imageLabel3683988,dishwasher
1512400181,db217f722ff04706309805a1bed8ff84,Form,269,0,image,NULL,_REACTION_TIME_,4107
1512400181,db217f722ff04706309805a1bed8ff84,Form,138,0,image,NULL,imageLabel3681699,sieve
1512400181,db217f722ff04706309805a1bed8ff84,Form,138,0,image,NULL,_REACTION_TIME_,3259
1512400181,db217f722ff04706309805a1bed8ff84,Form,73,0,image,NULL,imageLabel3681045,chair
1512400181,db217f722ff04706309805a1bed8ff84,Form,73,0,image,NULL,_REACTION_TIME_,2156
1512400181,db217f722ff04706309805a1bed8ff84,Form,195,0,image,NULL,imageLabel3683265,lipstick
1512400181,db217f722ff04706309805a1bed8ff84,Form,195,0,image,NULL,_REACTION_TIME_,2643
1512400181,db217f722ff04706309805a1bed8ff84,Form,144,0,image,NULL,imageLabel3681735,scale
1512400181,db217f722ff04706309805a1bed8ff84,Form,144,0,image,NULL,_REACTION_TIME_,2565
1512400181,db217f722ff04706309805a1bed8ff84,Form,14,0,image,NULL,imageLabel3680619,pinecone
1512400181,db217f722ff04706309805a1bed8ff84,Form,14,0,image,NULL,_REACTION_TIME_,2481
1512400181,db217f722ff04706309805a1bed8ff84,Form,239,0,image,NULL,imageLabel3683580,spedometer
1512400181,db217f722ff04706309805a1bed8ff84,Form,239,0,image,NULL,_REACTION_TIME_,6352
1512400181,db217f722ff04706309805a1bed8ff84,Form,9,0,image,NULL,imageLabel3680589,tractor
1512400181,db217f722ff04706309805a1bed8ff84,Form,9,0,image,NULL,_REACTION_TIME_,2627
1512400181,db217f722ff04706309805a1bed8ff84,Form,16,0,image,NULL,imageLabel3680631,squirrel
1512400181,db217f722ff04706309805a1bed8ff84,Form,16,0,image,NULL,_REACTION_TIME_,3944
1512400181,db217f722ff04706309805a1bed8ff84,Form,218,0,image,NULL,imageLabel3683436,microwave
1512400181,db217f722ff04706309805a1bed8ff84,Form,218,0,image,NULL,_REACTION_TIME_,3011
1512400181,db217f722ff04706309805a1bed8ff84,Form,234,0,image,NULL,imageLabel3683532,lamp
1512400181,db217f722ff04706309805a1bed8ff84,Form,234,0,image,NULL,_REACTION_TIME_,1725
1512400181,db217f722ff04706309805a1bed8ff84,Form,222,0,image,NULL,imageLabel3683463,slide
1512400181,db217f722ff04706309805a1bed8ff84,Form,222,0,image,NULL,_REACTION_TIME_,6350
1512400181,db217f722ff04706309805a1bed8ff84,Form,197,0,image,NULL,imageLabel3683274,barrel
1512400181,db217f722ff04706309805a1bed8ff84,Form,197,0,image,NULL,_REACTION_TIME_,2336
1512400181,db217f722ff04706309805a1bed8ff84,Form,79,0,image,NULL,imageLabel3681084,boat
1512400181,db217f722ff04706309805a1bed8ff84,Form,79,0,image,NULL,_REACTION_TIME_,2216
1512400181,db217f722ff04706309805a1bed8ff84,Form,191,0,image,NULL,imageLabel3683238,protractor
1512400181,db217f722ff04706309805a1bed8ff84,Form,191,0,image,NULL,_REACTION_TIME_,3703
1512400181,db217f722ff04706309805a1bed8ff84,Form,240,0,image,NULL,imageLabel3683583,lock
1512400181,db217f722ff04706309805a1bed8ff84,Form,240,0,image,NULL,_REACTION_TIME_,3562
1512400181,db217f722ff04706309805a1bed8ff84,Form,117,0,image,NULL,imageLabel3681516,backpack
1512400181,db217f722ff04706309805a1bed8ff84,Form,117,0,image,NULL,_REACTION_TIME_,5442
1512400181,db217f722ff04706309805a1bed8ff84,Form,156,0,image,NULL,imageLabel3682995,hat
1512400181,db217f722ff04706309805a1bed8ff84,Form,156,0,image,NULL,_REACTION_TIME_,1945
1512400181,db217f722ff04706309805a1bed8ff84,Form,50,0,image,NULL,imageLabel3680868,glass
1512400181,db217f722ff04706309805a1bed8ff84,Form,50,0,image,NULL,_REACTION_TIME_,2231
1512400181,db217f722ff04706309805a1bed8ff84,Form,171,0,image,NULL,imageLabel3683091,instrument
1512400181,db217f722ff04706309805a1bed8ff84,Form,171,0,image,NULL,_REACTION_TIME_,5035
1512400181,db217f722ff04706309805a1bed8ff84,Form,25,0,image,NULL,imageLabel3680694,ball
1512400181,db217f722ff04706309805a1bed8ff84,Form,25,0,image,NULL,_REACTION_TIME_,1766
1512400181,db217f722ff04706309805a1bed8ff84,Form,176,0,image,NULL,imageLabel3683112,grater
1512400181,db217f722ff04706309805a1bed8ff84,Form,176,0,image,NULL,_REACTION_TIME_,3058
1512400181,db217f722ff04706309805a1bed8ff84,Form,194,0,image,NULL,imageLabel3683259,mouse
1512400181,db217f722ff04706309805a1bed8ff84,Form,194,0,image,NULL,_REACTION_TIME_,2257
1512400181,db217f722ff04706309805a1bed8ff84,Form,59,0,image,NULL,imageLabel3680916,eagle
1512400181,db217f722ff04706309805a1bed8ff84,Form,59,0,image,NULL,_REACTION_TIME_,3238
1512400181,db217f722ff04706309805a1bed8ff84,Form,141,0,image,NULL,imageLabel3681708,truck
1512400181,db217f722ff04706309805a1bed8ff84,Form,141,0,image,NULL,_REACTION_TIME_,14661
1512400181,db217f722ff04706309805a1bed8ff84,Form,90,0,image,NULL,imageLabel3681141,fish
1512400181,db217f722ff04706309805a1bed8ff84,Form,90,0,image,NULL,_REACTION_TIME_,1845
1512400181,db217f722ff04706309805a1bed8ff84,Form,101,0,image,NULL,imageLabel3681312,glass
1512400181,db217f722ff04706309805a1bed8ff84,Form,101,0,image,NULL,_REACTION_TIME_,1846
1512400181,db217f722ff04706309805a1bed8ff84,Form,189,0,image,NULL,imageLabel3683199,lamb
1512400181,db217f722ff04706309805a1bed8ff84,Form,189,0,image,NULL,_REACTION_TIME_,8902
1512400181,db217f722ff04706309805a1bed8ff84,Form,188,0,image,NULL,imageLabel3683190,tub
1512400181,db217f722ff04706309805a1bed8ff84,Form,188,0,image,NULL,_REACTION_TIME_,7035
1512400181,db217f722ff04706309805a1bed8ff84,Form,142,0,image,NULL,imageLabel3681717,sandals
1512400181,db217f722ff04706309805a1bed8ff84,Form,142,0,image,NULL,_REACTION_TIME_,7310
1512400181,db217f722ff04706309805a1bed8ff84,Form,192,0,image,NULL,imageLabel3683244,hat
1512400181,db217f722ff04706309805a1bed8ff84,Form,192,0,image,NULL,_REACTION_TIME_,5914
1512400181,db217f722ff04706309805a1bed8ff84,Form,273,0,image,NULL,imageLabel3684021,bottle
1512400181,db217f722ff04706309805a1bed8ff84,Form,273,0,image,NULL,_REACTION_TIME_,2509
1512400181,db217f722ff04706309805a1bed8ff84,Form,266,0,image,NULL,imageLabel3683961,bloodpressure
1512400181,db217f722ff04706309805a1bed8ff84,Form,266,0,image,NULL,_REACTION_TIME_,4473
1512400181,db217f722ff04706309805a1bed8ff84,Form,37,0,image,NULL,imageLabel3680754,pot
1512400181,db217f722ff04706309805a1bed8ff84,Form,37,0,image,NULL,_REACTION_TIME_,1811
1512400181,db217f722ff04706309805a1bed8ff84,Form,261,0,image,NULL,imageLabel3683877,helmet
1512400181,db217f722ff04706309805a1bed8ff84,Form,261,0,image,NULL,_REACTION_TIME_,2108
1512400181,db217f722ff04706309805a1bed8ff84,Form,215,0,image,NULL,imageLabel3683412,comb
1512400181,db217f722ff04706309805a1bed8ff84,Form,215,0,image,NULL,_REACTION_TIME_,2454
1512400181,db217f722ff04706309805a1bed8ff84,Form,67,0,image,NULL,imageLabel3680997,strawberry
1512400181,db217f722ff04706309805a1bed8ff84,Form,67,0,image,NULL,_REACTION_TIME_,2836
1512400181,db217f722ff04706309805a1bed8ff84,Form,291,0,image,NULL,imageLabel3684141,scale
1512400181,db217f722ff04706309805a1bed8ff84,Form,291,0,image,NULL,_REACTION_TIME_,2221
1512400181,db217f722ff04706309805a1bed8ff84,Form,225,0,image,NULL,imageLabel3683481,lemon
1512400181,db217f722ff04706309805a1bed8ff84,Form,225,0,image,NULL,_REACTION_TIME_,2646
1512400181,db217f722ff04706309805a1bed8ff84,Form,57,0,image,NULL,imageLabel3680910,duck
1512400181,db217f722ff04706309805a1bed8ff84,Form,57,0,image,NULL,_REACTION_TIME_,1915
1512400181,db217f722ff04706309805a1bed8ff84,Form,43,0,image,NULL,imageLabel3680829,desk
1512400181,db217f722ff04706309805a1bed8ff84,Form,43,0,image,NULL,_REACTION_TIME_,1904
1512400181,db217f722ff04706309805a1bed8ff84,Form,39,0,image,NULL,imageLabel3680763,broom
1512400181,db217f722ff04706309805a1bed8ff84,Form,39,0,image,NULL,_REACTION_TIME_,2664
1512400181,db217f722ff04706309805a1bed8ff84,Form,88,0,image,NULL,imageLabel3681129,trumpet
1512400181,db217f722ff04706309805a1bed8ff84,Form,88,0,image,NULL,_REACTION_TIME_,2387
1512400181,db217f722ff04706309805a1bed8ff84,Form,287,0,image,NULL,imageLabel3684111,zebra
1512400181,db217f722ff04706309805a1bed8ff84,Form,287,0,image,NULL,_REACTION_TIME_,3170
1512400181,db217f722ff04706309805a1bed8ff84,Form,78,0,image,NULL,imageLabel3681075,glass
1512400181,db217f722ff04706309805a1bed8ff84,Form,78,0,image,NULL,_REACTION_TIME_,2075
1512400181,db217f722ff04706309805a1bed8ff84,Form,105,0,image,NULL,imageLabel3681336,bottle
1512400181,db217f722ff04706309805a1bed8ff84,Form,105,0,image,NULL,_REACTION_TIME_,2653
1512400181,db217f722ff04706309805a1bed8ff84,Form,271,0,image,NULL,imageLabel3684012,bridge
1512400181,db217f722ff04706309805a1bed8ff84,Form,271,0,image,NULL,_REACTION_TIME_,2413
1512400181,db217f722ff04706309805a1bed8ff84,Form,100,0,image,NULL,imageLabel3681303,arrow
1512400181,db217f722ff04706309805a1bed8ff84,Form,100,0,image,NULL,_REACTION_TIME_,7527
1512400181,db217f722ff04706309805a1bed8ff84,Form,251,0,image,NULL,imageLabel3683739,plant
1512400181,db217f722ff04706309805a1bed8ff84,Form,251,0,image,NULL,_REACTION_TIME_,3153
1512400181,db217f722ff04706309805a1bed8ff84,Form,18,0,image,NULL,imageLabel3680643,glove
1512400181,db217f722ff04706309805a1bed8ff84,Form,18,0,image,NULL,_REACTION_TIME_,2854
1512400181,db217f722ff04706309805a1bed8ff84,Form,113,0,image,NULL,imageLabel3681459,trumpet
1512400181,db217f722ff04706309805a1bed8ff84,Form,113,0,image,NULL,_REACTION_TIME_,2826
1512400181,db217f722ff04706309805a1bed8ff84,Form,168,0,image,NULL,imageLabel3683076,bread
1512400181,db217f722ff04706309805a1bed8ff84,Form,168,0,image,NULL,_REACTION_TIME_,2077
1512400181,db217f722ff04706309805a1bed8ff84,Form,119,0,image,NULL,imageLabel3681555,device
1512400181,db217f722ff04706309805a1bed8ff84,Form,119,0,image,NULL,_REACTION_TIME_,4011
1512400181,db217f722ff04706309805a1bed8ff84,Form,256,0,image,NULL,imageLabel3683784,bow
1512400181,db217f722ff04706309805a1bed8ff84,Form,256,0,image,NULL,_REACTION_TIME_,2731
1512400181,db217f722ff04706309805a1bed8ff84,Form,199,0,image,NULL,imageLabel3683286,wood
1512400181,db217f722ff04706309805a1bed8ff84,Form,199,0,image,NULL,_REACTION_TIME_,2380
1512400181,db217f722ff04706309805a1bed8ff84,Form,213,0,image,NULL,imageLabel3683388,apple
1512400181,db217f722ff04706309805a1bed8ff84,Form,213,0,image,NULL,_REACTION_TIME_,2095
1512400181,db217f722ff04706309805a1bed8ff84,Form,77,0,image,NULL,imageLabel3681072,cake
1512400181,db217f722ff04706309805a1bed8ff84,Form,77,0,image,NULL,_REACTION_TIME_,2115
1512400181,db217f722ff04706309805a1bed8ff84,Form,224,0,image,NULL,imageLabel3683478,candy
1512400181,db217f722ff04706309805a1bed8ff84,Form,224,0,image,NULL,_REACTION_TIME_,2533
1512400181,db217f722ff04706309805a1bed8ff84,Form,202,0,image,NULL,imageLabel3683304,bottle opener
1512400181,db217f722ff04706309805a1bed8ff84,Form,202,0,image,NULL,_REACTION_TIME_,4160
1512400181,db217f722ff04706309805a1bed8ff84,Form,265,0,image,NULL,imageLabel3683925,thermometer
1512400181,db217f722ff04706309805a1bed8ff84,Form,265,0,image,NULL,_REACTION_TIME_,3702
1512400181,db217f722ff04706309805a1bed8ff84,Form,81,0,image,NULL,imageLabel3681099,pot
1512400181,db217f722ff04706309805a1bed8ff84,Form,81,0,image,NULL,_REACTION_TIME_,1892
1512400181,db217f722ff04706309805a1bed8ff84,Form,140,0,image,NULL,imageLabel3681705,rhino
1512400181,db217f722ff04706309805a1bed8ff84,Form,140,0,image,NULL,_REACTION_TIME_,2140
1512400181,db217f722ff04706309805a1bed8ff84,Form,232,0,image,NULL,imageLabel3683523,boat
1512400181,db217f722ff04706309805a1bed8ff84,Form,232,0,image,NULL,_REACTION_TIME_,2237
1512400181,db217f722ff04706309805a1bed8ff84,Form,289,0,image,NULL,imageLabel3684123,camera
1512400181,db217f722ff04706309805a1bed8ff84,Form,289,0,image,NULL,_REACTION_TIME_,1819
1512400181,db217f722ff04706309805a1bed8ff84,Form,121,0,image,NULL,imageLabel3681573,chicken
1512400181,db217f722ff04706309805a1bed8ff84,Form,121,0,image,NULL,_REACTION_TIME_,1875
1512400181,db217f722ff04706309805a1bed8ff84,Form,181,0,image,NULL,imageLabel3683139,pot
1512400181,db217f722ff04706309805a1bed8ff84,Form,181,0,image,NULL,_REACTION_TIME_,1697
1512400181,db217f722ff04706309805a1bed8ff84,Form,82,0,image,NULL,imageLabel3681102,lion
1512400181,db217f722ff04706309805a1bed8ff84,Form,82,0,image,NULL,_REACTION_TIME_,1706
1512400181,db217f722ff04706309805a1bed8ff84,Form,147,0,image,NULL,imageLabel3681747,glass
1512400181,db217f722ff04706309805a1bed8ff84,Form,147,0,image,NULL,_REACTION_TIME_,2172
1512400181,db217f722ff04706309805a1bed8ff84,Form,260,0,image,NULL,imageLabel3683865,flute
1512400181,db217f722ff04706309805a1bed8ff84,Form,260,0,image,NULL,_REACTION_TIME_,2464
1512400181,db217f722ff04706309805a1bed8ff84,Form,270,0,image,NULL,imageLabel3684000,dog
1512400181,db217f722ff04706309805a1bed8ff84,Form,270,0,image,NULL,_REACTION_TIME_,1927
1512400181,db217f722ff04706309805a1bed8ff84,Form,44,0,image,NULL,imageLabel3680832,ruler
1512400181,db217f722ff04706309805a1bed8ff84,Form,44,0,image,NULL,_REACTION_TIME_,2609
1512400181,db217f722ff04706309805a1bed8ff84,Form,91,0,image,NULL,imageLabel3681144,glass
1512400181,db217f722ff04706309805a1bed8ff84,Form,91,0,image,NULL,_REACTION_TIME_,1964
1512400181,db217f722ff04706309805a1bed8ff84,Form,28,0,image,NULL,imageLabel3680703,instrument
1512400181,db217f722ff04706309805a1bed8ff84,Form,28,0,image,NULL,_REACTION_TIME_,4175
1512400181,db217f722ff04706309805a1bed8ff84,Form,193,0,image,NULL,imageLabel3683250,device
1512400181,db217f722ff04706309805a1bed8ff84,Form,193,0,image,NULL,_REACTION_TIME_,3282
1512400181,db217f722ff04706309805a1bed8ff84,Form,159,0,image,NULL,imageLabel3683013,plant
1512400181,db217f722ff04706309805a1bed8ff84,Form,159,0,image,NULL,_REACTION_TIME_,2029
1512400181,db217f722ff04706309805a1bed8ff84,Form,226,0,image,NULL,imageLabel3683490,boat
1512400181,db217f722ff04706309805a1bed8ff84,Form,226,0,image,NULL,_REACTION_TIME_,2057
1512400181,db217f722ff04706309805a1bed8ff84,Form,123,0,image,NULL,imageLabel3681594,leash
1512400181,db217f722ff04706309805a1bed8ff84,Form,123,0,image,NULL,_REACTION_TIME_,2478
1512400181,db217f722ff04706309805a1bed8ff84,Form,198,0,image,NULL,imageLabel3683283,microphone
1512400181,db217f722ff04706309805a1bed8ff84,Form,198,0,image,NULL,_REACTION_TIME_,2879
1512400181,db217f722ff04706309805a1bed8ff84,Form,228,0,image,NULL,imageLabel3683505,noodles
1512400181,db217f722ff04706309805a1bed8ff84,Form,228,0,image,NULL,_REACTION_TIME_,2599
1512400181,db217f722ff04706309805a1bed8ff84,Form,80,0,image,NULL,imageLabel3681093,bike
1512400181,db217f722ff04706309805a1bed8ff84,Form,80,0,image,NULL,_REACTION_TIME_,1797
1512400181,db217f722ff04706309805a1bed8ff84,Form,163,0,image,NULL,imageLabel3683037,rabbit
1512400181,db217f722ff04706309805a1bed8ff84,Form,163,0,image,NULL,_REACTION_TIME_,2750
1512400181,db217f722ff04706309805a1bed8ff84,Form,275,0,image,NULL,imageLabel3684036,pot
1512400181,db217f722ff04706309805a1bed8ff84,Form,275,0,image,NULL,_REACTION_TIME_,1557
1512400181,db217f722ff04706309805a1bed8ff84,Form,183,0,image,NULL,imageLabel3683148,device
1512400181,db217f722ff04706309805a1bed8ff84,Form,183,0,image,NULL,_REACTION_TIME_,2977
1512400181,db217f722ff04706309805a1bed8ff84,Form,61,0,image,NULL,imageLabel3680934,key
1512400181,db217f722ff04706309805a1bed8ff84,Form,61,0,image,NULL,_REACTION_TIME_,2549
1512400181,db217f722ff04706309805a1bed8ff84,Form,290,0,image,NULL,imageLabel3684135,shell
1512400181,db217f722ff04706309805a1bed8ff84,Form,290,0,image,NULL,_REACTION_TIME_,1896
1512400181,db217f722ff04706309805a1bed8ff84,Form,68,0,image,NULL,imageLabel3681006,comb
1512400181,db217f722ff04706309805a1bed8ff84,Form,68,0,image,NULL,_REACTION_TIME_,2042
1512400181,db217f722ff04706309805a1bed8ff84,Form,279,0,image,NULL,imageLabel3684060,parrot
1512400181,db217f722ff04706309805a1bed8ff84,Form,279,0,image,NULL,_REACTION_TIME_,1877
1512400181,db217f722ff04706309805a1bed8ff84,Form,29,0,image,NULL,imageLabel3680706,cheese
1512400181,db217f722ff04706309805a1bed8ff84,Form,29,0,image,NULL,_REACTION_TIME_,2295
1512400181,db217f722ff04706309805a1bed8ff84,Form,63,0,image,NULL,imageLabel3680946,cookie
1512400181,db217f722ff04706309805a1bed8ff84,Form,63,0,image,NULL,_REACTION_TIME_,2406
1512400181,db217f722ff04706309805a1bed8ff84,Form,259,0,image,NULL,imageLabel3683835,blender
1512400181,db217f722ff04706309805a1bed8ff84,Form,259,0,image,NULL,_REACTION_TIME_,2931
1512400181,db217f722ff04706309805a1bed8ff84,Form,99,0,image,NULL,imageLabel3681279,instrument
1512400181,db217f722ff04706309805a1bed8ff84,Form,99,0,image,NULL,_REACTION_TIME_,3298
1512400181,db217f722ff04706309805a1bed8ff84,Form,161,0,image,NULL,imageLabel3683025,horseshoe
1512400181,db217f722ff04706309805a1bed8ff84,Form,161,0,image,NULL,_REACTION_TIME_,2689
1512400181,db217f722ff04706309805a1bed8ff84,Form,51,0,image,NULL,imageLabel3680877,guitar
1512400181,db217f722ff04706309805a1bed8ff84,Form,51,0,image,NULL,_REACTION_TIME_,1916
1512400181,db217f722ff04706309805a1bed8ff84,Form,139,0,image,NULL,imageLabel3681702,glove
1512400181,db217f722ff04706309805a1bed8ff84,Form,139,0,image,NULL,_REACTION_TIME_,2212
1512400181,db217f722ff04706309805a1bed8ff84,Form,20,0,image,NULL,imageLabel3680655,football
1512400181,db217f722ff04706309805a1bed8ff84,Form,20,0,image,NULL,_REACTION_TIME_,2847
1512400181,db217f722ff04706309805a1bed8ff84,Form,40,0,image,NULL,imageLabel3680775,turtle
1512400181,db217f722ff04706309805a1bed8ff84,Form,40,0,image,NULL,_REACTION_TIME_,3160
1512400181,db217f722ff04706309805a1bed8ff84,Form,280,0,image,NULL,imageLabel3684078,animal
1512400181,db217f722ff04706309805a1bed8ff84,Form,280,0,image,NULL,_REACTION_TIME_,3580
1512400181,db217f722ff04706309805a1bed8ff84,Form,148,0,image,NULL,imageLabel3681756,mirror
1512400181,db217f722ff04706309805a1bed8ff84,Form,148,0,image,NULL,_REACTION_TIME_,2260
1512400181,db217f722ff04706309805a1bed8ff84,Form,237,0,image,NULL,imageLabel3683547,animal
1512400181,db217f722ff04706309805a1bed8ff84,Form,237,0,image,NULL,_REACTION_TIME_,2473
1512400181,db217f722ff04706309805a1bed8ff84,Form,94,0,image,NULL,imageLabel3681195,screw
1512400181,db217f722ff04706309805a1bed8ff84,Form,94,0,image,NULL,_REACTION_TIME_,2440
1512400181,db217f722ff04706309805a1bed8ff84,Form,294,0,image,NULL,imageLabel3684153,cup
1512400181,db217f722ff04706309805a1bed8ff84,Form,294,0,image,NULL,_REACTION_TIME_,1939
1512400181,db217f722ff04706309805a1bed8ff84,Form,227,0,image,NULL,imageLabel3683499,helmet
1512400181,db217f722ff04706309805a1bed8ff84,Form,227,0,image,NULL,_REACTION_TIME_,2060
1512400181,db217f722ff04706309805a1bed8ff84,Form,102,0,image,NULL,imageLabel3681324,spoon
1512400181,db217f722ff04706309805a1bed8ff84,Form,102,0,image,NULL,_REACTION_TIME_,1972
1512400181,db217f722ff04706309805a1bed8ff84,Form,169,0,image,NULL,imageLabel3683082,pepper
1512400181,db217f722ff04706309805a1bed8ff84,Form,169,0,image,NULL,_REACTION_TIME_,2949
1512400181,db217f722ff04706309805a1bed8ff84,Form,92,0,image,NULL,imageLabel3681174,car
1512400181,db217f722ff04706309805a1bed8ff84,Form,92,0,image,NULL,_REACTION_TIME_,1664
1512400181,db217f722ff04706309805a1bed8ff84,Form,41,0,image,NULL,imageLabel3680784,faucet
1512400181,db217f722ff04706309805a1bed8ff84,Form,41,0,image,NULL,_REACTION_TIME_,3348
1512400181,db217f722ff04706309805a1bed8ff84,Form,56,0,image,NULL,imageLabel3680907,bowl
1512400181,db217f722ff04706309805a1bed8ff84,Form,56,0,image,NULL,_REACTION_TIME_,3475
1512400181,db217f722ff04706309805a1bed8ff84,Form,125,0,image,NULL,imageLabel3681612,pot
1512400181,db217f722ff04706309805a1bed8ff84,Form,125,0,image,NULL,_REACTION_TIME_,1685
1512400181,db217f722ff04706309805a1bed8ff84,Form,47,0,image,NULL,imageLabel3680853,keyboard
1512400181,db217f722ff04706309805a1bed8ff84,Form,47,0,image,NULL,_REACTION_TIME_,2957
1512400181,db217f722ff04706309805a1bed8ff84,Form,154,0,image,NULL,imageLabel3682989,plant
1512400181,db217f722ff04706309805a1bed8ff84,Form,154,0,image,NULL,_REACTION_TIME_,2854
1512400181,db217f722ff04706309805a1bed8ff84,Form,236,0,image,NULL,imageLabel3683538,blender
1512400181,db217f722ff04706309805a1bed8ff84,Form,236,0,image,NULL,_REACTION_TIME_,2156
1512400181,db217f722ff04706309805a1bed8ff84,Form,164,0,image,NULL,imageLabel3683040,tire
1512400181,db217f722ff04706309805a1bed8ff84,Form,164,0,image,NULL,_REACTION_TIME_,1993
1512400181,db217f722ff04706309805a1bed8ff84,Form,19,0,image,NULL,imageLabel3680649,chair
1512400181,db217f722ff04706309805a1bed8ff84,Form,19,0,image,NULL,_REACTION_TIME_,1975
1512400181,db217f722ff04706309805a1bed8ff84,Form,209,0,image,NULL,imageLabel3683349,shrimp
1512400181,db217f722ff04706309805a1bed8ff84,Form,209,0,image,NULL,_REACTION_TIME_,2603
1512400181,db217f722ff04706309805a1bed8ff84,Form,15,0,image,NULL,imageLabel3680625,axe
1512400181,db217f722ff04706309805a1bed8ff84,Form,15,0,image,NULL,_REACTION_TIME_,1942
1512400181,db217f722ff04706309805a1bed8ff84,Form,160,0,image,NULL,imageLabel3683022,rocket
1512400181,db217f722ff04706309805a1bed8ff84,Form,160,0,image,NULL,_REACTION_TIME_,2879
1512400181,db217f722ff04706309805a1bed8ff84,Form,115,0,image,NULL,imageLabel3681474,sled
1512400181,db217f722ff04706309805a1bed8ff84,Form,115,0,image,NULL,_REACTION_TIME_,1831
1512400181,db217f722ff04706309805a1bed8ff84,Form,35,0,image,NULL,imageLabel3680736,candle
1512400181,db217f722ff04706309805a1bed8ff84,Form,35,0,image,NULL,_REACTION_TIME_,2716
1512400181,db217f722ff04706309805a1bed8ff84,Form,242,0,image,NULL,imageLabel3683607,hookah
1512400181,db217f722ff04706309805a1bed8ff84,Form,242,0,image,NULL,_REACTION_TIME_,3739
1512400181,db217f722ff04706309805a1bed8ff84,Form,126,0,image,NULL,imageLabel3681615,cup
1512400181,db217f722ff04706309805a1bed8ff84,Form,126,0,image,NULL,_REACTION_TIME_,1952
1512400181,db217f722ff04706309805a1bed8ff84,Form,223,0,image,NULL,imageLabel3683472,tractor
1512400181,db217f722ff04706309805a1bed8ff84,Form,223,0,image,NULL,_REACTION_TIME_,2294
1512400181,db217f722ff04706309805a1bed8ff84,Form,255,0,image,NULL,imageLabel3683778,racket
1512400181,db217f722ff04706309805a1bed8ff84,Form,255,0,image,NULL,_REACTION_TIME_,4483
1512400181,db217f722ff04706309805a1bed8ff84,Form,2,0,image,NULL,imageLabel3680562,tractor
1512400181,db217f722ff04706309805a1bed8ff84,Form,2,0,image,NULL,_REACTION_TIME_,2278
1512400181,db217f722ff04706309805a1bed8ff84,Form,167,0,image,NULL,imageLabel3683061,ball
1512400181,db217f722ff04706309805a1bed8ff84,Form,167,0,image,NULL,_REACTION_TIME_,1811
1512400181,db217f722ff04706309805a1bed8ff84,Form,86,0,image,NULL,imageLabel3681120,ship
1512400181,db217f722ff04706309805a1bed8ff84,Form,86,0,image,NULL,_REACTION_TIME_,1854
1512400181,db217f722ff04706309805a1bed8ff84,Form,132,0,image,NULL,imageLabel3681654,toucan
1512400181,db217f722ff04706309805a1bed8ff84,Form,132,0,image,NULL,_REACTION_TIME_,2648
1512400181,db217f722ff04706309805a1bed8ff84,Form,135,0,image,NULL,imageLabel3681678,piano
1512400181,db217f722ff04706309805a1bed8ff84,Form,135,0,image,NULL,_REACTION_TIME_,2013
1512400181,db217f722ff04706309805a1bed8ff84,Form,98,0,image,NULL,imageLabel3681276,calendar
1512400181,db217f722ff04706309805a1bed8ff84,Form,98,0,image,NULL,_REACTION_TIME_,2964
1512400181,db217f722ff04706309805a1bed8ff84,Form,83,0,image,NULL,imageLabel3681108,hammer
1512400181,db217f722ff04706309805a1bed8ff84,Form,83,0,image,NULL,_REACTION_TIME_,2767
1512400181,db217f722ff04706309805a1bed8ff84,Form,72,0,image,NULL,imageLabel3681042,pasta
1512400181,db217f722ff04706309805a1bed8ff84,Form,72,0,image,NULL,_REACTION_TIME_,3961
1512400181,db217f722ff04706309805a1bed8ff84,Form,27,0,image,NULL,imageLabel3680700,starfish
1512400181,db217f722ff04706309805a1bed8ff84,Form,27,0,image,NULL,_REACTION_TIME_,3207
1512400181,db217f722ff04706309805a1bed8ff84,Form,254,0,image,NULL,imageLabel3683763,glove
1512400181,db217f722ff04706309805a1bed8ff84,Form,254,0,image,NULL,_REACTION_TIME_,1706
1512400181,db217f722ff04706309805a1bed8ff84,Form,71,0,image,NULL,imageLabel3681030,toaster
1512400181,db217f722ff04706309805a1bed8ff84,Form,71,0,image,NULL,_REACTION_TIME_,2678
1512400181,db217f722ff04706309805a1bed8ff84,Form,165,0,image,NULL,imageLabel3683049,ball
1512400181,db217f722ff04706309805a1bed8ff84,Form,165,0,image,NULL,_REACTION_TIME_,1964
1512400181,db217f722ff04706309805a1bed8ff84,Form,85,0,image,NULL,imageLabel3681117,board
1512400181,db217f722ff04706309805a1bed8ff84,Form,85,0,image,NULL,_REACTION_TIME_,3959
1512400181,db217f722ff04706309805a1bed8ff84,Form,179,0,image,NULL,imageLabel3683127,rake
1512400181,db217f722ff04706309805a1bed8ff84,Form,179,0,image,NULL,_REACTION_TIME_,2547
1512400181,db217f722ff04706309805a1bed8ff84,Form,36,0,image,NULL,imageLabel3680742,cup
1512400181,db217f722ff04706309805a1bed8ff84,Form,36,0,image,NULL,_REACTION_TIME_,2029
1512400181,db217f722ff04706309805a1bed8ff84,Form,238,0,image,NULL,imageLabel3683550,dish
1512400181,db217f722ff04706309805a1bed8ff84,Form,238,0,image,NULL,_REACTION_TIME_,2177
1512400181,db217f722ff04706309805a1bed8ff84,Form,283,0,image,NULL,imageLabel3684096,peeler
1512400181,db217f722ff04706309805a1bed8ff84,Form,283,0,image,NULL,_REACTION_TIME_,2843
1512400181,db217f722ff04706309805a1bed8ff84,Form,178,0,image,NULL,imageLabel3683124,bag
1512400181,db217f722ff04706309805a1bed8ff84,Form,178,0,image,NULL,_REACTION_TIME_,2083
1512400181,db217f722ff04706309805a1bed8ff84,Form,284,0,image,NULL,imageLabel3684102,box
1512400181,db217f722ff04706309805a1bed8ff84,Form,284,0,image,NULL,_REACTION_TIME_,2778
1512400181,db217f722ff04706309805a1bed8ff84,Form,292,0,image,NULL,imageLabel3684144,dolphin
1512400181,db217f722ff04706309805a1bed8ff84,Form,292,0,image,NULL,_REACTION_TIME_,3024
1512400181,db217f722ff04706309805a1bed8ff84,Form,53,0,image,NULL,imageLabel3680883,pipe
1512400181,db217f722ff04706309805a1bed8ff84,Form,53,0,image,NULL,_REACTION_TIME_,2302
1512400181,db217f722ff04706309805a1bed8ff84,Form,146,0,image,NULL,imageLabel3681744,board
1512400181,db217f722ff04706309805a1bed8ff84,Form,146,0,image,NULL,_REACTION_TIME_,2432
1512400181,db217f722ff04706309805a1bed8ff84,Form,247,0,image,NULL,imageLabel3683709,crossbow
1512400181,db217f722ff04706309805a1bed8ff84,Form,247,0,image,NULL,_REACTION_TIME_,3154
1512400181,db217f722ff04706309805a1bed8ff84,Form,122,0,image,NULL,imageLabel3681582,plate
1512400181,db217f722ff04706309805a1bed8ff84,Form,122,0,image,NULL,_REACTION_TIME_,2445
1512400181,db217f722ff04706309805a1bed8ff84,Form,21,0,image,NULL,imageLabel3680670,toaster
1512400181,db217f722ff04706309805a1bed8ff84,Form,21,0,image,NULL,_REACTION_TIME_,2846
1512400181,db217f722ff04706309805a1bed8ff84,Form,244,0,image,NULL,imageLabel3683646,chain
1512400181,db217f722ff04706309805a1bed8ff84,Form,244,0,image,NULL,_REACTION_TIME_,2271
1512400181,db217f722ff04706309805a1bed8ff84,Form,120,0,image,NULL,imageLabel3681570,typewriter
1512400181,db217f722ff04706309805a1bed8ff84,Form,120,0,image,NULL,_REACTION_TIME_,2876
1512400181,db217f722ff04706309805a1bed8ff84,Form,110,0,image,NULL,imageLabel3681381,ball
1512400181,db217f722ff04706309805a1bed8ff84,Form,110,0,image,NULL,_REACTION_TIME_,1963
1512400181,db217f722ff04706309805a1bed8ff84,Form,196,0,image,NULL,imageLabel3683271,peeler
1512400181,db217f722ff04706309805a1bed8ff84,Form,196,0,image,NULL,_REACTION_TIME_,2922
1512400181,db217f722ff04706309805a1bed8ff84,Form,5,0,image,NULL,imageLabel3680571,chocolate
1512400181,db217f722ff04706309805a1bed8ff84,Form,5,0,image,NULL,_REACTION_TIME_,2402
1512400181,db217f722ff04706309805a1bed8ff84,Form,32,0,image,NULL,imageLabel3680721,plant
1512400181,db217f722ff04706309805a1bed8ff84,Form,32,0,image,NULL,_REACTION_TIME_,2355
1512400181,db217f722ff04706309805a1bed8ff84,Form,134,0,image,NULL,imageLabel3681675,bat
1512400181,db217f722ff04706309805a1bed8ff84,Form,134,0,image,NULL,_REACTION_TIME_,1503
1512400181,db217f722ff04706309805a1bed8ff84,Form,22,0,image,NULL,imageLabel3680676,salt
1512400181,db217f722ff04706309805a1bed8ff84,Form,22,0,image,NULL,_REACTION_TIME_,2156
1512400181,db217f722ff04706309805a1bed8ff84,Form,8,0,image,NULL,imageLabel3680586,basket
1512400181,db217f722ff04706309805a1bed8ff84,Form,8,0,image,NULL,_REACTION_TIME_,1994
1512400181,db217f722ff04706309805a1bed8ff84,Form,190,0,image,NULL,imageLabel3683235,chair
1512400181,db217f722ff04706309805a1bed8ff84,Form,190,0,image,NULL,_REACTION_TIME_,2313
1512400181,db217f722ff04706309805a1bed8ff84,Form,12,0,image,NULL,imageLabel3680607,rabbit
1512400181,db217f722ff04706309805a1bed8ff84,Form,12,0,image,NULL,_REACTION_TIME_,1819
1512400181,db217f722ff04706309805a1bed8ff84,Form,173,0,image,NULL,imageLabel3683103,pot
1512400181,db217f722ff04706309805a1bed8ff84,Form,173,0,image,NULL,_REACTION_TIME_,2042
1512400181,db217f722ff04706309805a1bed8ff84,Form,124,0,image,NULL,imageLabel3681606,train
1512400181,db217f722ff04706309805a1bed8ff84,Form,124,0,image,NULL,_REACTION_TIME_,2323
1512400181,db217f722ff04706309805a1bed8ff84,Form,108,0,image,NULL,imageLabel3681372,ball
1512400181,db217f722ff04706309805a1bed8ff84,Form,108,0,image,NULL,_REACTION_TIME_,2067
1512400181,db217f722ff04706309805a1bed8ff84,Form,70,0,image,NULL,imageLabel3681027,screw
1512400181,db217f722ff04706309805a1bed8ff84,Form,70,0,image,NULL,_REACTION_TIME_,2989
1512400181,db217f722ff04706309805a1bed8ff84,Form,45,0,image,NULL,imageLabel3680838,glove
1512400181,db217f722ff04706309805a1bed8ff84,Form,45,0,image,NULL,_REACTION_TIME_,1766
1512400181,db217f722ff04706309805a1bed8ff84,Form,60,0,image,NULL,imageLabel3680928,monitor
1512400181,db217f722ff04706309805a1bed8ff84,Form,60,0,image,NULL,_REACTION_TIME_,2373
1512400181,db217f722ff04706309805a1bed8ff84,Form,66,0,image,NULL,imageLabel3680982,pear
1512400181,db217f722ff04706309805a1bed8ff84,Form,66,0,image,NULL,_REACTION_TIME_,1519
1512400181,db217f722ff04706309805a1bed8ff84,Form,46,0,image,NULL,imageLabel3680844,device
1512400181,db217f722ff04706309805a1bed8ff84,Form,46,0,image,NULL,_REACTION_TIME_,2814
1512400181,db217f722ff04706309805a1bed8ff84,Form,75,0,image,NULL,imageLabel3681057,swing
1512400181,db217f722ff04706309805a1bed8ff84,Form,75,0,image,NULL,_REACTION_TIME_,1708
1512400181,db217f722ff04706309805a1bed8ff84,Form,31,0,image,NULL,imageLabel3680718,purse
1512400181,db217f722ff04706309805a1bed8ff84,Form,31,0,image,NULL,_REACTION_TIME_,1866
1512400181,db217f722ff04706309805a1bed8ff84,Form,136,0,image,NULL,imageLabel3681690,tool
1512400181,db217f722ff04706309805a1bed8ff84,Form,136,0,image,NULL,_REACTION_TIME_,3668
1512400181,db217f722ff04706309805a1bed8ff84,Form,157,0,image,NULL,imageLabel3683001,fish
1512400181,db217f722ff04706309805a1bed8ff84,Form,157,0,image,NULL,_REACTION_TIME_,1889
1512400181,db217f722ff04706309805a1bed8ff84,Form,74,0,image,NULL,imageLabel3681048,door
1512400181,db217f722ff04706309805a1bed8ff84,Form,74,0,image,NULL,_REACTION_TIME_,2672
1512400181,db217f722ff04706309805a1bed8ff84,Form,233,0,image,NULL,imageLabel3683526,boat
1512400181,db217f722ff04706309805a1bed8ff84,Form,233,0,image,NULL,_REACTION_TIME_,2063
1512400181,db217f722ff04706309805a1bed8ff84,Form,230,0,image,NULL,imageLabel3683514,screw
1512400181,db217f722ff04706309805a1bed8ff84,Form,230,0,image,NULL,_REACTION_TIME_,2097
1512400181,db217f722ff04706309805a1bed8ff84,Form,277,0,image,NULL,imageLabel3684051,key
1512400181,db217f722ff04706309805a1bed8ff84,Form,277,0,image,NULL,_REACTION_TIME_,1840
1512400181,db217f722ff04706309805a1bed8ff84,Form,89,0,image,NULL,imageLabel3681132,mixer
1512400181,db217f722ff04706309805a1bed8ff84,Form,89,0,image,NULL,_REACTION_TIME_,2678
1512400181,db217f722ff04706309805a1bed8ff84,Form,23,0,image,NULL,imageLabel3680679,pump
1512400181,db217f722ff04706309805a1bed8ff84,Form,23,0,image,NULL,_REACTION_TIME_,4247
1512400181,db217f722ff04706309805a1bed8ff84,Form,131,0,image,NULL,imageLabel3681651,lemon
1512400181,db217f722ff04706309805a1bed8ff84,Form,131,0,image,NULL,_REACTION_TIME_,2648
1512400181,db217f722ff04706309805a1bed8ff84,Form,210,0,image,NULL,imageLabel3683352,bread
1512400181,db217f722ff04706309805a1bed8ff84,Form,210,0,image,NULL,_REACTION_TIME_,2331
1512400181,db217f722ff04706309805a1bed8ff84,Form,229,0,image,NULL,imageLabel3683508,tiger
1512400181,db217f722ff04706309805a1bed8ff84,Form,229,0,image,NULL,_REACTION_TIME_,1513
1512400181,db217f722ff04706309805a1bed8ff84,Form,276,0,image,NULL,imageLabel3684042,camel
1512400181,db217f722ff04706309805a1bed8ff84,Form,276,0,image,NULL,_REACTION_TIME_,1714
1512400181,db217f722ff04706309805a1bed8ff84,Form,248,0,image,NULL,imageLabel3683718,table
1512400181,db217f722ff04706309805a1bed8ff84,Form,248,0,image,NULL,_REACTION_TIME_,2472
1512400181,db217f722ff04706309805a1bed8ff84,Form,170,0,image,NULL,imageLabel3683085,bottle
1512400181,db217f722ff04706309805a1bed8ff84,Form,170,0,image,NULL,_REACTION_TIME_,2399
1512400181,db217f722ff04706309805a1bed8ff84,Form,212,0,image,NULL,imageLabel3683382,coconut
1512400181,db217f722ff04706309805a1bed8ff84,Form,212,0,image,NULL,_REACTION_TIME_,2155
1512400181,db217f722ff04706309805a1bed8ff84,Form,208,0,image,NULL,imageLabel3683340,lock
1512400181,db217f722ff04706309805a1bed8ff84,Form,208,0,image,NULL,_REACTION_TIME_,1639
1512400181,db217f722ff04706309805a1bed8ff84,Form,235,0,image,NULL,imageLabel3683535,instrument
1512400181,db217f722ff04706309805a1bed8ff84,Form,235,0,image,NULL,_REACTION_TIME_,2665
1512400181,db217f722ff04706309805a1bed8ff84,Form,95,0,image,NULL,imageLabel3681201,pipe
1512400181,db217f722ff04706309805a1bed8ff84,Form,95,0,image,NULL,_REACTION_TIME_,1586
1512400181,db217f722ff04706309805a1bed8ff84,Form,175,0,image,NULL,imageLabel3683109,tool
1512400181,db217f722ff04706309805a1bed8ff84,Form,175,0,image,NULL,_REACTION_TIME_,3904
1512400181,db217f722ff04706309805a1bed8ff84,Form,295,0,image,NULL,imageLabel3684162,mirror
1512400181,db217f722ff04706309805a1bed8ff84,Form,295,0,image,NULL,_REACTION_TIME_,4207
1512400181,db217f722ff04706309805a1bed8ff84,Form,76,0,image,NULL,imageLabel3681066,hay
1512400181,db217f722ff04706309805a1bed8ff84,Form,76,0,image,NULL,_REACTION_TIME_,4029
1512400181,db217f722ff04706309805a1bed8ff84,Form,272,0,image,NULL,imageLabel3684018,pan
1512400181,db217f722ff04706309805a1bed8ff84,Form,272,0,image,NULL,_REACTION_TIME_,1814
1512400181,db217f722ff04706309805a1bed8ff84,Form,48,0,image,NULL,imageLabel3680859,brush
1512400181,db217f722ff04706309805a1bed8ff84,Form,48,0,image,NULL,_REACTION_TIME_,2111
1512400181,db217f722ff04706309805a1bed8ff84,Form,7,0,image,NULL,imageLabel3680583,lettuce
1512400181,db217f722ff04706309805a1bed8ff84,Form,7,0,image,NULL,_REACTION_TIME_,2094
1512400181,db217f722ff04706309805a1bed8ff84,Form,286,0,image,NULL,imageLabel3684108,jacket
1512400181,db217f722ff04706309805a1bed8ff84,Form,286,0,image,NULL,_REACTION_TIME_,2098
1512400181,db217f722ff04706309805a1bed8ff84,Form,285,0,image,NULL,imageLabel3684105,pot
1512400181,db217f722ff04706309805a1bed8ff84,Form,285,0,image,NULL,_REACTION_TIME_,1638
1512400181,db217f722ff04706309805a1bed8ff84,Form,4,0,image,NULL,imageLabel3680568,chicken
1512400181,db217f722ff04706309805a1bed8ff84,Form,4,0,image,NULL,_REACTION_TIME_,2971
1512400181,db217f722ff04706309805a1bed8ff84,Form,205,0,image,NULL,imageLabel3683319,trophy
1512400181,db217f722ff04706309805a1bed8ff84,Form,205,0,image,NULL,_REACTION_TIME_,2679
1512400181,db217f722ff04706309805a1bed8ff84,Form,185,0,image,NULL,imageLabel3683166,tree
1512400181,db217f722ff04706309805a1bed8ff84,Form,185,0,image,NULL,_REACTION_TIME_,2277
1512400181,db217f722ff04706309805a1bed8ff84,Form,96,0,image,NULL,imageLabel3681213,tie
1512400181,db217f722ff04706309805a1bed8ff84,Form,96,0,image,NULL,_REACTION_TIME_,1824
1512400181,db217f722ff04706309805a1bed8ff84,Form,111,0,image,NULL,imageLabel3681423,snowflake
1512400181,db217f722ff04706309805a1bed8ff84,Form,111,0,image,NULL,_REACTION_TIME_,2602
1512400181,db217f722ff04706309805a1bed8ff84,Form,288,0,image,NULL,imageLabel3684114,tractor
1512400181,db217f722ff04706309805a1bed8ff84,Form,288,0,image,NULL,_REACTION_TIME_,2561
1512400181,db217f722ff04706309805a1bed8ff84,Form,258,0,image,NULL,imageLabel3683829,ornament
1512400181,db217f722ff04706309805a1bed8ff84,Form,258,0,image,NULL,_REACTION_TIME_,2824
1512400181,db217f722ff04706309805a1bed8ff84,Form,184,0,image,NULL,imageLabel3683160,stove
1512400181,db217f722ff04706309805a1bed8ff84,Form,184,0,image,NULL,_REACTION_TIME_,3496
1512400181,db217f722ff04706309805a1bed8ff84,Form,3,0,image,NULL,imageLabel3680565,dog
1512400181,db217f722ff04706309805a1bed8ff84,Form,3,0,image,NULL,_REACTION_TIME_,2510
1512400181,db217f722ff04706309805a1bed8ff84,Form,217,0,image,NULL,imageLabel3683433,power tool
1512400181,db217f722ff04706309805a1bed8ff84,Form,217,0,image,NULL,_REACTION_TIME_,2907
1512400181,db217f722ff04706309805a1bed8ff84,Form,180,0,image,NULL,imageLabel3683130,hammer
1512400181,db217f722ff04706309805a1bed8ff84,Form,180,0,image,NULL,_REACTION_TIME_,1741
1512400181,db217f722ff04706309805a1bed8ff84,Form,58,0,image,NULL,imageLabel3680913,medal
1512400181,db217f722ff04706309805a1bed8ff84,Form,58,0,image,NULL,_REACTION_TIME_,1784
1512400181,db217f722ff04706309805a1bed8ff84,Form,249,0,image,NULL,imageLabel3683730,knife
1512400181,db217f722ff04706309805a1bed8ff84,Form,249,0,image,NULL,_REACTION_TIME_,2212
1512400181,db217f722ff04706309805a1bed8ff84,Form,166,0,image,NULL,imageLabel3683055,couch
1512400181,db217f722ff04706309805a1bed8ff84,Form,166,0,image,NULL,_REACTION_TIME_,1683
1512400181,db217f722ff04706309805a1bed8ff84,Form,84,0,image,NULL,imageLabel3681111,bag
1512400181,db217f722ff04706309805a1bed8ff84,Form,84,0,image,NULL,_REACTION_TIME_,2644
1512400181,db217f722ff04706309805a1bed8ff84,Form,158,0,image,NULL,imageLabel3683010,train
1512400181,db217f722ff04706309805a1bed8ff84,Form,158,0,image,NULL,_REACTION_TIME_,2574
1512400181,db217f722ff04706309805a1bed8ff84,Form,278,0,image,NULL,imageLabel3684057,kiwi
1512400181,db217f722ff04706309805a1bed8ff84,Form,278,0,image,NULL,_REACTION_TIME_,2185
1512400181,db217f722ff04706309805a1bed8ff84,Form,55,0,image,NULL,imageLabel3680898,cork
1512400181,db217f722ff04706309805a1bed8ff84,Form,55,0,image,NULL,_REACTION_TIME_,2086
1512400181,db217f722ff04706309805a1bed8ff84,Form,127,0,image,NULL,imageLabel3681621,envelope
1512400181,db217f722ff04706309805a1bed8ff84,Form,127,0,image,NULL,_REACTION_TIME_,2456
1512400181,db217f722ff04706309805a1bed8ff84,Form,221,0,image,NULL,imageLabel3683454,window
1512400181,db217f722ff04706309805a1bed8ff84,Form,221,0,image,NULL,_REACTION_TIME_,2166
1512400181,db217f722ff04706309805a1bed8ff84,Form,246,0,image,NULL,imageLabel3683685,stick
1512400181,db217f722ff04706309805a1bed8ff84,Form,246,0,image,NULL,_REACTION_TIME_,3065
1512400181,db217f722ff04706309805a1bed8ff84,Form,38,0,image,NULL,imageLabel3680760,pineapple
1512400181,db217f722ff04706309805a1bed8ff84,Form,38,0,image,NULL,_REACTION_TIME_,3602
1512400181,db217f722ff04706309805a1bed8ff84,Form,49,0,image,NULL,imageLabel3680865,potato
1512400181,db217f722ff04706309805a1bed8ff84,Form,49,0,image,NULL,_REACTION_TIME_,3590
1512400181,db217f722ff04706309805a1bed8ff84,Form,268,0,image,NULL,imageLabel3683979,chicken
1512400181,db217f722ff04706309805a1bed8ff84,Form,268,0,image,NULL,_REACTION_TIME_,2383
1512400181,db217f722ff04706309805a1bed8ff84,Form,87,0,image,NULL,imageLabel3681126,flashlight
1512400181,db217f722ff04706309805a1bed8ff84,Form,87,0,image,NULL,_REACTION_TIME_,2510
1512400181,db217f722ff04706309805a1bed8ff84,Form,133,0,image,NULL,imageLabel3681672,bison
1512400181,db217f722ff04706309805a1bed8ff84,Form,133,0,image,NULL,_REACTION_TIME_,1839
1512400181,db217f722ff04706309805a1bed8ff84,Form,6,0,image,NULL,imageLabel3680577,cake
1512400181,db217f722ff04706309805a1bed8ff84,Form,6,0,image,NULL,_REACTION_TIME_,3871
1512400181,db217f722ff04706309805a1bed8ff84,Form,130,0,image,NULL,imageLabel3681645,lock
1512400181,db217f722ff04706309805a1bed8ff84,Form,130,0,image,NULL,_REACTION_TIME_,7479
1512400181,db217f722ff04706309805a1bed8ff84,Form,187,0,image,NULL,imageLabel3683181,fish
1512400181,db217f722ff04706309805a1bed8ff84,Form,187,0,image,NULL,_REACTION_TIME_,3383
1512400181,db217f722ff04706309805a1bed8ff84,Form,17,0,image,NULL,imageLabel3680634,pump
1512400181,db217f722ff04706309805a1bed8ff84,Form,17,0,image,NULL,_REACTION_TIME_,3655
1512400181,db217f722ff04706309805a1bed8ff84,Form,263,0,image,NULL,imageLabel3683904,necklace
1512400181,db217f722ff04706309805a1bed8ff84,Form,263,0,image,NULL,_REACTION_TIME_,3432
1512400181,db217f722ff04706309805a1bed8ff84,Form,10,0,image,NULL,imageLabel3680595,starfish
1512400181,db217f722ff04706309805a1bed8ff84,Form,10,0,image,NULL,_REACTION_TIME_,2230
1512400181,db217f722ff04706309805a1bed8ff84,Form,112,0,image,NULL,imageLabel3681429,mixer
1512400181,db217f722ff04706309805a1bed8ff84,Form,112,0,image,NULL,_REACTION_TIME_,1968
1512400181,db217f722ff04706309805a1bed8ff84,Form,1,0,debrief,NULL,comments,N/A
1512400181,db217f722ff04706309805a1bed8ff84,Form,1,0,debrief,NULL,language,native
1512400181,db217f722ff04706309805a1bed8ff84,Form,1,0,debrief,NULL,easiness,native
1512400181,db217f722ff04706309805a1bed8ff84,Form,1,0,debrief,NULL,_REACTION_TIME_,6121
#
# Results on Monday December 04 2017 15:57:06 UTC.
# USER AGENT: Mozilla/5.0 (Windows NT 6.1; Win64; x64) AppleWebKit/537.36 (KHTML, like Gecko) Chrome/62.0.3202.94 Safari/537.36
# Design number was non-random = 5
#
# Columns below this comment are as follows:
# 1. Time results were received.
# 2. MD5 hash of participant's IP address.
# 3. Controller name.
# 4. Item number.
# 5. Element number.
# 6. Type.
# 7. Group.
# 8. Field name.
# 9. Field value.
1512403027,3d211102fefb414c475fec1272f1887d,Form,0,0,intro,NULL,_REACTION_TIME_,8790
1512403027,3d211102fefb414c475fec1272f1887d,Form,254,0,image,NULL,imageLabel3683763,glove
1512403027,3d211102fefb414c475fec1272f1887d,Form,254,0,image,NULL,_REACTION_TIME_,18865
1512403027,3d211102fefb414c475fec1272f1887d,Form,286,0,image,NULL,imageLabel3684108,jacket
1512403027,3d211102fefb414c475fec1272f1887d,Form,286,0,image,NULL,_REACTION_TIME_,5981
1512403027,3d211102fefb414c475fec1272f1887d,Form,230,0,image,NULL,imageLabel3683514,nail
1512403027,3d211102fefb414c475fec1272f1887d,Form,230,0,image,NULL,_REACTION_TIME_,10942
1512403027,3d211102fefb414c475fec1272f1887d,Form,120,0,image,NULL,imageLabel3681570,typewriter
1512403027,3d211102fefb414c475fec1272f1887d,Form,120,0,image,NULL,_REACTION_TIME_,13462
1512403027,3d211102fefb414c475fec1272f1887d,Form,290,0,image,NULL,imageLabel3684135,shell
1512403027,3d211102fefb414c475fec1272f1887d,Form,290,0,image,NULL,_REACTION_TIME_,9337
1512403027,3d211102fefb414c475fec1272f1887d,Form,90,0,image,NULL,imageLabel3681141,fish
1512403027,3d211102fefb414c475fec1272f1887d,Form,90,0,image,NULL,_REACTION_TIME_,5447
1512403027,3d211102fefb414c475fec1272f1887d,Form,217,0,image,NULL,imageLabel3683433,drill
1512403027,3d211102fefb414c475fec1272f1887d,Form,217,0,image,NULL,_REACTION_TIME_,5702
1512403027,3d211102fefb414c475fec1272f1887d,Form,277,0,image,NULL,imageLabel3684051,key
1512403027,3d211102fefb414c475fec1272f1887d,Form,277,0,image,NULL,_REACTION_TIME_,3350
1512403027,3d211102fefb414c475fec1272f1887d,Form,53,0,image,NULL,imageLabel3680883,pipe
1512403027,3d211102fefb414c475fec1272f1887d,Form,53,0,image,NULL,_REACTION_TIME_,4854
1512403027,3d211102fefb414c475fec1272f1887d,Form,144,0,image,NULL,imageLabel3681735,scales
1512403027,3d211102fefb414c475fec1272f1887d,Form,144,0,image,NULL,_REACTION_TIME_,8326
1512403027,3d211102fefb414c475fec1272f1887d,Form,170,0,image,NULL,imageLabel3683085,tube
1512403027,3d211102fefb414c475fec1272f1887d,Form,170,0,image,NULL,_REACTION_TIME_,38824
1512403027,3d211102fefb414c475fec1272f1887d,Form,261,0,image,NULL,imageLabel3683877,helmet
1512403027,3d211102fefb414c475fec1272f1887d,Form,261,0,image,NULL,_REACTION_TIME_,8743
1512403027,3d211102fefb414c475fec1272f1887d,Form,284,0,image,NULL,imageLabel3684102,box
1512403027,3d211102fefb414c475fec1272f1887d,Form,284,0,image,NULL,_REACTION_TIME_,3310
1512403027,3d211102fefb414c475fec1272f1887d,Form,82,0,image,NULL,imageLabel3681102,lion
1512403027,3d211102fefb414c475fec1272f1887d,Form,82,0,image,NULL,_REACTION_TIME_,3774
1512403027,3d211102fefb414c475fec1272f1887d,Form,77,0,image,NULL,imageLabel3681072,cake
1512403027,3d211102fefb414c475fec1272f1887d,Form,77,0,image,NULL,_REACTION_TIME_,12838
1512403027,3d211102fefb414c475fec1272f1887d,Form,267,0,image,NULL,imageLabel3683976,keyboard
1512403027,3d211102fefb414c475fec1272f1887d,Form,267,0,image,NULL,_REACTION_TIME_,4790
1512403027,3d211102fefb414c475fec1272f1887d,Form,40,0,image,NULL,imageLabel3680775,turtle
1512403027,3d211102fefb414c475fec1272f1887d,Form,40,0,image,NULL,_REACTION_TIME_,19622
1512403027,3d211102fefb414c475fec1272f1887d,Form,51,0,image,NULL,imageLabel3680877,guitar 
1512403027,3d211102fefb414c475fec1272f1887d,Form,51,0,image,NULL,_REACTION_TIME_,5946
1512403027,3d211102fefb414c475fec1272f1887d,Form,50,0,image,NULL,imageLabel3680868,glass
1512403027,3d211102fefb414c475fec1272f1887d,Form,50,0,image,NULL,_REACTION_TIME_,11046
1512403027,3d211102fefb414c475fec1272f1887d,Form,218,0,image,NULL,imageLabel3683436,microwave 
1512403027,3d211102fefb414c475fec1272f1887d,Form,218,0,image,NULL,_REACTION_TIME_,6903
1512403027,3d211102fefb414c475fec1272f1887d,Form,67,0,image,NULL,imageLabel3680997,strawberry
1512403027,3d211102fefb414c475fec1272f1887d,Form,67,0,image,NULL,_REACTION_TIME_,5461
1512403027,3d211102fefb414c475fec1272f1887d,Form,238,0,image,NULL,imageLabel3683550,plate
1512403027,3d211102fefb414c475fec1272f1887d,Form,238,0,image,NULL,_REACTION_TIME_,6718
1512403027,3d211102fefb414c475fec1272f1887d,Form,59,0,image,NULL,imageLabel3680916,eagle
1512403027,3d211102fefb414c475fec1272f1887d,Form,59,0,image,NULL,_REACTION_TIME_,4207
1512403027,3d211102fefb414c475fec1272f1887d,Form,262,0,image,NULL,imageLabel3683880,snowboard 
1512403027,3d211102fefb414c475fec1272f1887d,Form,262,0,image,NULL,_REACTION_TIME_,6327
1512403027,3d211102fefb414c475fec1272f1887d,Form,202,0,image,NULL,imageLabel3683304,bottle opener
1512403027,3d211102fefb414c475fec1272f1887d,Form,202,0,image,NULL,_REACTION_TIME_,27360
1512403027,3d211102fefb414c475fec1272f1887d,Form,183,0,image,NULL,imageLabel3683148,tea infuser
1512403027,3d211102fefb414c475fec1272f1887d,Form,183,0,image,NULL,_REACTION_TIME_,20495
1512403027,3d211102fefb414c475fec1272f1887d,Form,68,0,image,NULL,imageLabel3681006,brush
1512403027,3d211102fefb414c475fec1272f1887d,Form,68,0,image,NULL,_REACTION_TIME_,3807
1512403027,3d211102fefb414c475fec1272f1887d,Form,35,0,image,NULL,imageLabel3680736,chandelier 
1512403027,3d211102fefb414c475fec1272f1887d,Form,35,0,image,NULL,_REACTION_TIME_,13070
1512403027,3d211102fefb414c475fec1272f1887d,Form,184,0,image,NULL,imageLabel3683160,range
1512403027,3d211102fefb414c475fec1272f1887d,Form,184,0,image,NULL,_REACTION_TIME_,125335
1512403027,3d211102fefb414c475fec1272f1887d,Form,21,0,image,NULL,imageLabel3680670,toaster 
1512403027,3d211102fefb414c475fec1272f1887d,Form,21,0,image,NULL,_REACTION_TIME_,8929
1512403027,3d211102fefb414c475fec1272f1887d,Form,281,0,image,NULL,imageLabel3684081,cap
1512403027,3d211102fefb414c475fec1272f1887d,Form,281,0,image,NULL,_REACTION_TIME_,6743
1512403027,3d211102fefb414c475fec1272f1887d,Form,60,0,image,NULL,imageLabel3680928,monitor
1512403027,3d211102fefb414c475fec1272f1887d,Form,60,0,image,NULL,_REACTION_TIME_,3586
1512403027,3d211102fefb414c475fec1272f1887d,Form,280,0,image,NULL,imageLabel3684078,calf
1512403027,3d211102fefb414c475fec1272f1887d,Form,280,0,image,NULL,_REACTION_TIME_,153509
1512403027,3d211102fefb414c475fec1272f1887d,Form,20,0,image,NULL,imageLabel3680655,ball
1512403027,3d211102fefb414c475fec1272f1887d,Form,20,0,image,NULL,_REACTION_TIME_,5581
1512403027,3d211102fefb414c475fec1272f1887d,Form,232,0,image,NULL,imageLabel3683523,canoe 
1512403027,3d211102fefb414c475fec1272f1887d,Form,232,0,image,NULL,_REACTION_TIME_,4194
1512403027,3d211102fefb414c475fec1272f1887d,Form,46,0,image,NULL,imageLabel3680844,manometer 
1512403027,3d211102fefb414c475fec1272f1887d,Form,46,0,image,NULL,_REACTION_TIME_,46830
1512403027,3d211102fefb414c475fec1272f1887d,Form,17,0,image,NULL,imageLabel3680634,pump
1512403027,3d211102fefb414c475fec1272f1887d,Form,17,0,image,NULL,_REACTION_TIME_,28843
1512403027,3d211102fefb414c475fec1272f1887d,Form,182,0,image,NULL,imageLabel3683142,candle
1512403027,3d211102fefb414c475fec1272f1887d,Form,182,0,image,NULL,_REACTION_TIME_,3449
1512403027,3d211102fefb414c475fec1272f1887d,Form,100,0,image,NULL,imageLabel3681303,arrow
1512403027,3d211102fefb414c475fec1272f1887d,Form,100,0,image,NULL,_REACTION_TIME_,3590
1512403027,3d211102fefb414c475fec1272f1887d,Form,48,0,image,NULL,imageLabel3680859,brush
1512403027,3d211102fefb414c475fec1272f1887d,Form,48,0,image,NULL,_REACTION_TIME_,2845
1512403027,3d211102fefb414c475fec1272f1887d,Form,219,0,image,NULL,imageLabel3683448,pasta
1512403027,3d211102fefb414c475fec1272f1887d,Form,219,0,image,NULL,_REACTION_TIME_,3062
1512403027,3d211102fefb414c475fec1272f1887d,Form,99,0,image,NULL,imageLabel3681279,violin 
1512403027,3d211102fefb414c475fec1272f1887d,Form,99,0,image,NULL,_REACTION_TIME_,4807
1512403027,3d211102fefb414c475fec1272f1887d,Form,12,0,image,NULL,imageLabel3680607,rabbit
1512403027,3d211102fefb414c475fec1272f1887d,Form,12,0,image,NULL,_REACTION_TIME_,2878
1512403027,3d211102fefb414c475fec1272f1887d,Form,111,0,image,NULL,imageLabel3681423,snowflake 
1512403027,3d211102fefb414c475fec1272f1887d,Form,111,0,image,NULL,_REACTION_TIME_,4663
1512403027,3d211102fefb414c475fec1272f1887d,Form,8,0,image,NULL,imageLabel3680586,basket
1512403027,3d211102fefb414c475fec1272f1887d,Form,8,0,image,NULL,_REACTION_TIME_,12485
1512403027,3d211102fefb414c475fec1272f1887d,Form,166,0,image,NULL,imageLabel3683055,sofa
1512403027,3d211102fefb414c475fec1272f1887d,Form,166,0,image,NULL,_REACTION_TIME_,2310
1512403027,3d211102fefb414c475fec1272f1887d,Form,70,0,image,NULL,imageLabel3681027,drill
1512403027,3d211102fefb414c475fec1272f1887d,Form,70,0,image,NULL,_REACTION_TIME_,4485
1512403027,3d211102fefb414c475fec1272f1887d,Form,221,0,image,NULL,imageLabel3683454,window
1512403027,3d211102fefb414c475fec1272f1887d,Form,221,0,image,NULL,_REACTION_TIME_,3030
1512403027,3d211102fefb414c475fec1272f1887d,Form,255,0,image,NULL,imageLabel3683778,racket
1512403027,3d211102fefb414c475fec1272f1887d,Form,255,0,image,NULL,_REACTION_TIME_,26151
1512403027,3d211102fefb414c475fec1272f1887d,Form,47,0,image,NULL,imageLabel3680853,keyboard
1512403027,3d211102fefb414c475fec1272f1887d,Form,47,0,image,NULL,_REACTION_TIME_,4055
1512403027,3d211102fefb414c475fec1272f1887d,Form,220,0,image,NULL,imageLabel3683451,pillow
1512403027,3d211102fefb414c475fec1272f1887d,Form,220,0,image,NULL,_REACTION_TIME_,3086
1512403027,3d211102fefb414c475fec1272f1887d,Form,132,0,image,NULL,imageLabel3681654,bird
1512403027,3d211102fefb414c475fec1272f1887d,Form,132,0,image,NULL,_REACTION_TIME_,30774
1512403027,3d211102fefb414c475fec1272f1887d,Form,250,0,image,NULL,imageLabel3683736,parrot
1512403027,3d211102fefb414c475fec1272f1887d,Form,250,0,image,NULL,_REACTION_TIME_,4134
1512403027,3d211102fefb414c475fec1272f1887d,Form,203,0,image,NULL,imageLabel3683313,pacifier
1512403027,3d211102fefb414c475fec1272f1887d,Form,203,0,image,NULL,_REACTION_TIME_,3662
1512403027,3d211102fefb414c475fec1272f1887d,Form,73,0,image,NULL,imageLabel3681045,chair
1512403027,3d211102fefb414c475fec1272f1887d,Form,73,0,image,NULL,_REACTION_TIME_,4167
1512403027,3d211102fefb414c475fec1272f1887d,Form,54,0,image,NULL,imageLabel3680895,cane
1512403027,3d211102fefb414c475fec1272f1887d,Form,54,0,image,NULL,_REACTION_TIME_,10297
1512403027,3d211102fefb414c475fec1272f1887d,Form,39,0,image,NULL,imageLabel3680763,sweeper
1512403027,3d211102fefb414c475fec1272f1887d,Form,39,0,image,NULL,_REACTION_TIME_,36621
1512403027,3d211102fefb414c475fec1272f1887d,Form,139,0,image,NULL,imageLabel3681702,glove
1512403027,3d211102fefb414c475fec1272f1887d,Form,139,0,image,NULL,_REACTION_TIME_,5638
1512403027,3d211102fefb414c475fec1272f1887d,Form,66,0,image,NULL,imageLabel3680982,pear
1512403027,3d211102fefb414c475fec1272f1887d,Form,66,0,image,NULL,_REACTION_TIME_,5469
1512403027,3d211102fefb414c475fec1272f1887d,Form,49,0,image,NULL,imageLabel3680865,potato
1512403027,3d211102fefb414c475fec1272f1887d,Form,49,0,image,NULL,_REACTION_TIME_,3572
1512403027,3d211102fefb414c475fec1272f1887d,Form,273,0,image,NULL,imageLabel3684021,pitcher
1512403027,3d211102fefb414c475fec1272f1887d,Form,273,0,image,NULL,_REACTION_TIME_,112367
1512403027,3d211102fefb414c475fec1272f1887d,Form,95,0,image,NULL,imageLabel3681201,pipe
1512403027,3d211102fefb414c475fec1272f1887d,Form,95,0,image,NULL,_REACTION_TIME_,2533
1512403027,3d211102fefb414c475fec1272f1887d,Form,207,0,image,NULL,imageLabel3683334,fax
1512403027,3d211102fefb414c475fec1272f1887d,Form,207,0,image,NULL,_REACTION_TIME_,4728
1512403027,3d211102fefb414c475fec1272f1887d,Form,84,0,image,NULL,imageLabel3681111,sack
1512403027,3d211102fefb414c475fec1272f1887d,Form,84,0,image,NULL,_REACTION_TIME_,4508
1512403027,3d211102fefb414c475fec1272f1887d,Form,89,0,image,NULL,imageLabel3681132,mixer
1512403027,3d211102fefb414c475fec1272f1887d,Form,89,0,image,NULL,_REACTION_TIME_,8062
1512403027,3d211102fefb414c475fec1272f1887d,Form,146,0,image,NULL,imageLabel3681744,skateboard 
1512403027,3d211102fefb414c475fec1272f1887d,Form,146,0,image,NULL,_REACTION_TIME_,13926
1512403027,3d211102fefb414c475fec1272f1887d,Form,176,0,image,NULL,imageLabel3683112,grater
1512403027,3d211102fefb414c475fec1272f1887d,Form,176,0,image,NULL,_REACTION_TIME_,3422
1512403027,3d211102fefb414c475fec1272f1887d,Form,249,0,image,NULL,imageLabel3683730,knife
1512403027,3d211102fefb414c475fec1272f1887d,Form,249,0,image,NULL,_REACTION_TIME_,3038
1512403027,3d211102fefb414c475fec1272f1887d,Form,216,0,image,NULL,imageLabel3683418,mousetrap
1512403027,3d211102fefb414c475fec1272f1887d,Form,216,0,image,NULL,_REACTION_TIME_,49134
1512403027,3d211102fefb414c475fec1272f1887d,Form,259,0,image,NULL,imageLabel3683835,blender
1512403027,3d211102fefb414c475fec1272f1887d,Form,259,0,image,NULL,_REACTION_TIME_,3802
1512403027,3d211102fefb414c475fec1272f1887d,Form,147,0,image,NULL,imageLabel3681747,glass
1512403027,3d211102fefb414c475fec1272f1887d,Form,147,0,image,NULL,_REACTION_TIME_,5278
1512403027,3d211102fefb414c475fec1272f1887d,Form,115,0,image,NULL,imageLabel3681474,sled
1512403027,3d211102fefb414c475fec1272f1887d,Form,115,0,image,NULL,_REACTION_TIME_,17053
1512403027,3d211102fefb414c475fec1272f1887d,Form,2,0,image,NULL,imageLabel3680562,tractor
1512403027,3d211102fefb414c475fec1272f1887d,Form,2,0,image,NULL,_REACTION_TIME_,6591
1512403027,3d211102fefb414c475fec1272f1887d,Form,288,0,image,NULL,imageLabel3684114,excavator
1512403027,3d211102fefb414c475fec1272f1887d,Form,288,0,image,NULL,_REACTION_TIME_,17047
1512403027,3d211102fefb414c475fec1272f1887d,Form,151,0,image,NULL,imageLabel3682974,egg
1512403027,3d211102fefb414c475fec1272f1887d,Form,151,0,image,NULL,_REACTION_TIME_,2286
1512403027,3d211102fefb414c475fec1272f1887d,Form,72,0,image,NULL,imageLabel3681042,pasta
1512403027,3d211102fefb414c475fec1272f1887d,Form,72,0,image,NULL,_REACTION_TIME_,2454
1512403027,3d211102fefb414c475fec1272f1887d,Form,223,0,image,NULL,imageLabel3683472,tractor
1512403027,3d211102fefb414c475fec1272f1887d,Form,223,0,image,NULL,_REACTION_TIME_,2666
1512403027,3d211102fefb414c475fec1272f1887d,Form,210,0,image,NULL,imageLabel3683352,bread
1512403027,3d211102fefb414c475fec1272f1887d,Form,210,0,image,NULL,_REACTION_TIME_,2893
1512403027,3d211102fefb414c475fec1272f1887d,Form,32,0,image,NULL,imageLabel3680721,leaf
1512403027,3d211102fefb414c475fec1272f1887d,Form,32,0,image,NULL,_REACTION_TIME_,5062
1512403027,3d211102fefb414c475fec1272f1887d,Form,157,0,image,NULL,imageLabel3683001,fish
1512403027,3d211102fefb414c475fec1272f1887d,Form,157,0,image,NULL,_REACTION_TIME_,2327
1512403027,3d211102fefb414c475fec1272f1887d,Form,107,0,image,NULL,imageLabel3681357,bat
1512403027,3d211102fefb414c475fec1272f1887d,Form,107,0,image,NULL,_REACTION_TIME_,2173
1512403027,3d211102fefb414c475fec1272f1887d,Form,244,0,image,NULL,imageLabel3683646,chain
1512403027,3d211102fefb414c475fec1272f1887d,Form,244,0,image,NULL,_REACTION_TIME_,2646
1512403027,3d211102fefb414c475fec1272f1887d,Form,85,0,image,NULL,imageLabel3681117,surfboard
1512403027,3d211102fefb414c475fec1272f1887d,Form,85,0,image,NULL,_REACTION_TIME_,4037
1512403027,3d211102fefb414c475fec1272f1887d,Form,268,0,image,NULL,imageLabel3683979,chick 
1512403027,3d211102fefb414c475fec1272f1887d,Form,268,0,image,NULL,_REACTION_TIME_,25331
1512403027,3d211102fefb414c475fec1272f1887d,Form,128,0,image,NULL,imageLabel3681630,ladle
1512403027,3d211102fefb414c475fec1272f1887d,Form,128,0,image,NULL,_REACTION_TIME_,131956
1512403027,3d211102fefb414c475fec1272f1887d,Form,264,0,image,NULL,imageLabel3683922,tent
1512403027,3d211102fefb414c475fec1272f1887d,Form,264,0,image,NULL,_REACTION_TIME_,19450
1512403027,3d211102fefb414c475fec1272f1887d,Form,16,0,image,NULL,imageLabel3680631,meerkat
1512403027,3d211102fefb414c475fec1272f1887d,Form,16,0,image,NULL,_REACTION_TIME_,156064
1512403027,3d211102fefb414c475fec1272f1887d,Form,81,0,image,NULL,imageLabel3681099,colander 
1512403027,3d211102fefb414c475fec1272f1887d,Form,81,0,image,NULL,_REACTION_TIME_,16982
1512403027,3d211102fefb414c475fec1272f1887d,Form,134,0,image,NULL,imageLabel3681675,bat
1512403027,3d211102fefb414c475fec1272f1887d,Form,134,0,image,NULL,_REACTION_TIME_,2107
1512403027,3d211102fefb414c475fec1272f1887d,Form,114,0,image,NULL,imageLabel3681471,tank
1512403027,3d211102fefb414c475fec1272f1887d,Form,114,0,image,NULL,_REACTION_TIME_,2406
1512403027,3d211102fefb414c475fec1272f1887d,Form,58,0,image,NULL,imageLabel3680913,medal
1512403027,3d211102fefb414c475fec1272f1887d,Form,58,0,image,NULL,_REACTION_TIME_,19233
1512403027,3d211102fefb414c475fec1272f1887d,Form,245,0,image,NULL,imageLabel3683682,planner
1512403027,3d211102fefb414c475fec1272f1887d,Form,245,0,image,NULL,_REACTION_TIME_,5623
1512403027,3d211102fefb414c475fec1272f1887d,Form,173,0,image,NULL,imageLabel3683103,teapot
1512403027,3d211102fefb414c475fec1272f1887d,Form,173,0,image,NULL,_REACTION_TIME_,32854
1512403027,3d211102fefb414c475fec1272f1887d,Form,4,0,image,NULL,imageLabel3680568,rooster 
1512403027,3d211102fefb414c475fec1272f1887d,Form,4,0,image,NULL,_REACTION_TIME_,4406
1512403027,3d211102fefb414c475fec1272f1887d,Form,239,0,image,NULL,imageLabel3683580,speedometer 
1512403027,3d211102fefb414c475fec1272f1887d,Form,239,0,image,NULL,_REACTION_TIME_,13990
1512403027,3d211102fefb414c475fec1272f1887d,Form,167,0,image,NULL,imageLabel3683061,ball
1512403027,3d211102fefb414c475fec1272f1887d,Form,167,0,image,NULL,_REACTION_TIME_,3200
1512403027,3d211102fefb414c475fec1272f1887d,Form,213,0,image,NULL,imageLabel3683388,apple
1512403027,3d211102fefb414c475fec1272f1887d,Form,213,0,image,NULL,_REACTION_TIME_,2582
1512403027,3d211102fefb414c475fec1272f1887d,Form,141,0,image,NULL,imageLabel3681708,truck
1512403027,3d211102fefb414c475fec1272f1887d,Form,141,0,image,NULL,_REACTION_TIME_,3518
1512403027,3d211102fefb414c475fec1272f1887d,Form,63,0,image,NULL,imageLabel3680946,cookie 
1512403027,3d211102fefb414c475fec1272f1887d,Form,63,0,image,NULL,_REACTION_TIME_,3958
1512403027,3d211102fefb414c475fec1272f1887d,Form,34,0,image,NULL,imageLabel3680733,flower
1512403027,3d211102fefb414c475fec1272f1887d,Form,34,0,image,NULL,_REACTION_TIME_,4502
1512403027,3d211102fefb414c475fec1272f1887d,Form,153,0,image,NULL,imageLabel3682983,muffin
1512403027,3d211102fefb414c475fec1272f1887d,Form,153,0,image,NULL,_REACTION_TIME_,95507
1512403027,3d211102fefb414c475fec1272f1887d,Form,45,0,image,NULL,imageLabel3680838,mitten
1512403027,3d211102fefb414c475fec1272f1887d,Form,45,0,image,NULL,_REACTION_TIME_,39646
1512403027,3d211102fefb414c475fec1272f1887d,Form,30,0,image,NULL,imageLabel3680712,saxophone 
1512403027,3d211102fefb414c475fec1272f1887d,Form,30,0,image,NULL,_REACTION_TIME_,7354
1512403027,3d211102fefb414c475fec1272f1887d,Form,279,0,image,NULL,imageLabel3684060,parrot
1512403027,3d211102fefb414c475fec1272f1887d,Form,279,0,image,NULL,_REACTION_TIME_,3753
1512403027,3d211102fefb414c475fec1272f1887d,Form,64,0,image,NULL,imageLabel3680967,book
1512403027,3d211102fefb414c475fec1272f1887d,Form,64,0,image,NULL,_REACTION_TIME_,17393
1512403027,3d211102fefb414c475fec1272f1887d,Form,145,0,image,NULL,imageLabel3681738,shark
1512403027,3d211102fefb414c475fec1272f1887d,Form,145,0,image,NULL,_REACTION_TIME_,3045
1512403027,3d211102fefb414c475fec1272f1887d,Form,285,0,image,NULL,imageLabel3684105,tea infuser
1512403027,3d211102fefb414c475fec1272f1887d,Form,285,0,image,NULL,_REACTION_TIME_,5926
1512403027,3d211102fefb414c475fec1272f1887d,Form,174,0,image,NULL,imageLabel3683106,seahorse
1512403027,3d211102fefb414c475fec1272f1887d,Form,174,0,image,NULL,_REACTION_TIME_,3728
1512403027,3d211102fefb414c475fec1272f1887d,Form,162,0,image,NULL,imageLabel3683031,reaper
1512403027,3d211102fefb414c475fec1272f1887d,Form,162,0,image,NULL,_REACTION_TIME_,20459
1512403027,3d211102fefb414c475fec1272f1887d,Form,23,0,image,NULL,imageLabel3680679,none
1512403027,3d211102fefb414c475fec1272f1887d,Form,23,0,image,NULL,_REACTION_TIME_,83521
1512403027,3d211102fefb414c475fec1272f1887d,Form,156,0,image,NULL,imageLabel3682995,hat
1512403027,3d211102fefb414c475fec1272f1887d,Form,156,0,image,NULL,_REACTION_TIME_,3437
1512403027,3d211102fefb414c475fec1272f1887d,Form,61,0,image,NULL,imageLabel3680934,key
1512403027,3d211102fefb414c475fec1272f1887d,Form,61,0,image,NULL,_REACTION_TIME_,25118
1512403027,3d211102fefb414c475fec1272f1887d,Form,201,0,image,NULL,imageLabel3683301,hat
1512403027,3d211102fefb414c475fec1272f1887d,Form,201,0,image,NULL,_REACTION_TIME_,5823
1512403027,3d211102fefb414c475fec1272f1887d,Form,52,0,image,NULL,imageLabel3680880,chainsaw
1512403027,3d211102fefb414c475fec1272f1887d,Form,52,0,image,NULL,_REACTION_TIME_,3326
1512403027,3d211102fefb414c475fec1272f1887d,Form,97,0,image,NULL,imageLabel3681240,bicycle
1512403027,3d211102fefb414c475fec1272f1887d,Form,97,0,image,NULL,_REACTION_TIME_,3325
1512403027,3d211102fefb414c475fec1272f1887d,Form,234,0,image,NULL,imageLabel3683532,lamp
1512403027,3d211102fefb414c475fec1272f1887d,Form,234,0,image,NULL,_REACTION_TIME_,2214
1512403027,3d211102fefb414c475fec1272f1887d,Form,294,0,image,NULL,imageLabel3684153,jug
1512403027,3d211102fefb414c475fec1272f1887d,Form,294,0,image,NULL,_REACTION_TIME_,139574
1512403027,3d211102fefb414c475fec1272f1887d,Form,247,0,image,NULL,imageLabel3683709,crossbow
1512403027,3d211102fefb414c475fec1272f1887d,Form,247,0,image,NULL,_REACTION_TIME_,49079
1512403027,3d211102fefb414c475fec1272f1887d,Form,127,0,image,NULL,imageLabel3681621,envelop
1512403027,3d211102fefb414c475fec1272f1887d,Form,127,0,image,NULL,_REACTION_TIME_,4773
1512403027,3d211102fefb414c475fec1272f1887d,Form,78,0,image,NULL,imageLabel3681075,glass
1512403027,3d211102fefb414c475fec1272f1887d,Form,78,0,image,NULL,_REACTION_TIME_,2855
1512403027,3d211102fefb414c475fec1272f1887d,Form,214,0,image,NULL,imageLabel3683403,raspberry 
1512403027,3d211102fefb414c475fec1272f1887d,Form,214,0,image,NULL,_REACTION_TIME_,38849
1512403027,3d211102fefb414c475fec1272f1887d,Form,243,0,image,NULL,imageLabel3683619,tie
1512403027,3d211102fefb414c475fec1272f1887d,Form,243,0,image,NULL,_REACTION_TIME_,2830
1512403027,3d211102fefb414c475fec1272f1887d,Form,137,0,image,NULL,imageLabel3681696,box
1512403027,3d211102fefb414c475fec1272f1887d,Form,137,0,image,NULL,_REACTION_TIME_,2411
1512403027,3d211102fefb414c475fec1272f1887d,Form,140,0,image,NULL,imageLabel3681705,rhino
1512403027,3d211102fefb414c475fec1272f1887d,Form,140,0,image,NULL,_REACTION_TIME_,3648
1512403027,3d211102fefb414c475fec1272f1887d,Form,150,0,image,NULL,imageLabel3682971,kitten
1512403027,3d211102fefb414c475fec1272f1887d,Form,150,0,image,NULL,_REACTION_TIME_,3005
1512403027,3d211102fefb414c475fec1272f1887d,Form,199,0,image,NULL,imageLabel3683286,wood
1512403027,3d211102fefb414c475fec1272f1887d,Form,199,0,image,NULL,_REACTION_TIME_,2886
1512403027,3d211102fefb414c475fec1272f1887d,Form,22,0,image,NULL,imageLabel3680676,sugar
1512403027,3d211102fefb414c475fec1272f1887d,Form,22,0,image,NULL,_REACTION_TIME_,4798
1512403027,3d211102fefb414c475fec1272f1887d,Form,194,0,image,NULL,imageLabel3683259,mouse
1512403027,3d211102fefb414c475fec1272f1887d,Form,194,0,image,NULL,_REACTION_TIME_,16126
1512403027,3d211102fefb414c475fec1272f1887d,Form,189,0,image,NULL,imageLabel3683199,sheep
1512403027,3d211102fefb414c475fec1272f1887d,Form,189,0,image,NULL,_REACTION_TIME_,7517
1512403027,3d211102fefb414c475fec1272f1887d,Form,222,0,image,NULL,imageLabel3683463,slide 
1512403027,3d211102fefb414c475fec1272f1887d,Form,222,0,image,NULL,_REACTION_TIME_,3254
1512403027,3d211102fefb414c475fec1272f1887d,Form,152,0,image,NULL,imageLabel3682977,candy
1512403027,3d211102fefb414c475fec1272f1887d,Form,152,0,image,NULL,_REACTION_TIME_,3503
1512403027,3d211102fefb414c475fec1272f1887d,Form,138,0,image,NULL,imageLabel3681699,strainer
1512403027,3d211102fefb414c475fec1272f1887d,Form,138,0,image,NULL,_REACTION_TIME_,5623
1512403027,3d211102fefb414c475fec1272f1887d,Form,192,0,image,NULL,imageLabel3683244,hat
1512403027,3d211102fefb414c475fec1272f1887d,Form,192,0,image,NULL,_REACTION_TIME_,7926
1512403027,3d211102fefb414c475fec1272f1887d,Form,129,0,image,NULL,imageLabel3681636,donkey
1512403027,3d211102fefb414c475fec1272f1887d,Form,129,0,image,NULL,_REACTION_TIME_,3975
1512403027,3d211102fefb414c475fec1272f1887d,Form,104,0,image,NULL,imageLabel3681333,flower
1512403027,3d211102fefb414c475fec1272f1887d,Form,104,0,image,NULL,_REACTION_TIME_,34150
1512403027,3d211102fefb414c475fec1272f1887d,Form,282,0,image,NULL,imageLabel3684084,none
1512403027,3d211102fefb414c475fec1272f1887d,Form,282,0,image,NULL,_REACTION_TIME_,16853
1512403027,3d211102fefb414c475fec1272f1887d,Form,14,0,image,NULL,imageLabel3680619,cone
1512403027,3d211102fefb414c475fec1272f1887d,Form,14,0,image,NULL,_REACTION_TIME_,47546
1512403027,3d211102fefb414c475fec1272f1887d,Form,71,0,image,NULL,imageLabel3681030,toaster
1512403027,3d211102fefb414c475fec1272f1887d,Form,71,0,image,NULL,_REACTION_TIME_,4636
1512403027,3d211102fefb414c475fec1272f1887d,Form,3,0,image,NULL,imageLabel3680565,dog
1512403027,3d211102fefb414c475fec1272f1887d,Form,3,0,image,NULL,_REACTION_TIME_,2152
1512403027,3d211102fefb414c475fec1272f1887d,Form,69,0,image,NULL,imageLabel3681012,mouse
1512403027,3d211102fefb414c475fec1272f1887d,Form,69,0,image,NULL,_REACTION_TIME_,3164
1512403027,3d211102fefb414c475fec1272f1887d,Form,55,0,image,NULL,imageLabel3680898,cork
1512403027,3d211102fefb414c475fec1272f1887d,Form,55,0,image,NULL,_REACTION_TIME_,3110
1512403027,3d211102fefb414c475fec1272f1887d,Form,88,0,image,NULL,imageLabel3681129,instrument
1512403027,3d211102fefb414c475fec1272f1887d,Form,88,0,image,NULL,_REACTION_TIME_,5358
1512403027,3d211102fefb414c475fec1272f1887d,Form,101,0,image,NULL,imageLabel3681312,glass
1512403027,3d211102fefb414c475fec1272f1887d,Form,101,0,image,NULL,_REACTION_TIME_,9302
1512403027,3d211102fefb414c475fec1272f1887d,Form,258,0,image,NULL,imageLabel3683829,ornament
1512403027,3d211102fefb414c475fec1272f1887d,Form,258,0,image,NULL,_REACTION_TIME_,5494
1512403027,3d211102fefb414c475fec1272f1887d,Form,33,0,image,NULL,imageLabel3680724,screwdriver
1512403027,3d211102fefb414c475fec1272f1887d,Form,33,0,image,NULL,_REACTION_TIME_,5045
1512403027,3d211102fefb414c475fec1272f1887d,Form,272,0,image,NULL,imageLabel3684018,pan
1512403027,3d211102fefb414c475fec1272f1887d,Form,272,0,image,NULL,_REACTION_TIME_,2303
1512403027,3d211102fefb414c475fec1272f1887d,Form,83,0,image,NULL,imageLabel3681108,hammer
1512403027,3d211102fefb414c475fec1272f1887d,Form,83,0,image,NULL,_REACTION_TIME_,2533
1512403027,3d211102fefb414c475fec1272f1887d,Form,224,0,image,NULL,imageLabel3683478,candy
1512403027,3d211102fefb414c475fec1272f1887d,Form,224,0,image,NULL,_REACTION_TIME_,7726
1512403027,3d211102fefb414c475fec1272f1887d,Form,231,0,image,NULL,imageLabel3683517,backpack 
1512403027,3d211102fefb414c475fec1272f1887d,Form,231,0,image,NULL,_REACTION_TIME_,7816
1512403027,3d211102fefb414c475fec1272f1887d,Form,164,0,image,NULL,imageLabel3683040,wheel
1512403027,3d211102fefb414c475fec1272f1887d,Form,164,0,image,NULL,_REACTION_TIME_,4374
1512403027,3d211102fefb414c475fec1272f1887d,Form,169,0,image,NULL,imageLabel3683082,pepper
1512403027,3d211102fefb414c475fec1272f1887d,Form,169,0,image,NULL,_REACTION_TIME_,5734
1512403027,3d211102fefb414c475fec1272f1887d,Form,96,0,image,NULL,imageLabel3681213,tie
1512403027,3d211102fefb414c475fec1272f1887d,Form,96,0,image,NULL,_REACTION_TIME_,2118
1512403027,3d211102fefb414c475fec1272f1887d,Form,263,0,image,NULL,imageLabel3683904,necklace
1512403027,3d211102fefb414c475fec1272f1887d,Form,263,0,image,NULL,_REACTION_TIME_,11221
1512403027,3d211102fefb414c475fec1272f1887d,Form,172,0,image,NULL,imageLabel3683100,badminton
1512403027,3d211102fefb414c475fec1272f1887d,Form,172,0,image,NULL,_REACTION_TIME_,21133
1512403027,3d211102fefb414c475fec1272f1887d,Form,233,0,image,NULL,imageLabel3683526,ship
1512403027,3d211102fefb414c475fec1272f1887d,Form,233,0,image,NULL,_REACTION_TIME_,4903
1512403027,3d211102fefb414c475fec1272f1887d,Form,148,0,image,NULL,imageLabel3681756,mirror
1512403027,3d211102fefb414c475fec1272f1887d,Form,148,0,image,NULL,_REACTION_TIME_,3085
1512403027,3d211102fefb414c475fec1272f1887d,Form,155,0,image,NULL,imageLabel3682992,cart
1512403027,3d211102fefb414c475fec1272f1887d,Form,155,0,image,NULL,_REACTION_TIME_,2686
1512403027,3d211102fefb414c475fec1272f1887d,Form,108,0,image,NULL,imageLabel3681372,ball
1512403027,3d211102fefb414c475fec1272f1887d,Form,108,0,image,NULL,_REACTION_TIME_,46785
1512403027,3d211102fefb414c475fec1272f1887d,Form,278,0,image,NULL,imageLabel3684057,kiwi
1512403027,3d211102fefb414c475fec1272f1887d,Form,278,0,image,NULL,_REACTION_TIME_,4694
1512403027,3d211102fefb414c475fec1272f1887d,Form,208,0,image,NULL,imageLabel3683340,lock
1512403027,3d211102fefb414c475fec1272f1887d,Form,208,0,image,NULL,_REACTION_TIME_,2229
1512403027,3d211102fefb414c475fec1272f1887d,Form,185,0,image,NULL,imageLabel3683166,tree
1512403027,3d211102fefb414c475fec1272f1887d,Form,185,0,image,NULL,_REACTION_TIME_,4173
1512403027,3d211102fefb414c475fec1272f1887d,Form,240,0,image,NULL,imageLabel3683583,lock
1512403027,3d211102fefb414c475fec1272f1887d,Form,240,0,image,NULL,_REACTION_TIME_,2630
1512403027,3d211102fefb414c475fec1272f1887d,Form,276,0,image,NULL,imageLabel3684042,camel
1512403027,3d211102fefb414c475fec1272f1887d,Form,276,0,image,NULL,_REACTION_TIME_,2916
1512403027,3d211102fefb414c475fec1272f1887d,Form,175,0,image,NULL,imageLabel3683109,triangle
1512403027,3d211102fefb414c475fec1272f1887d,Form,175,0,image,NULL,_REACTION_TIME_,5183
1512403027,3d211102fefb414c475fec1272f1887d,Form,110,0,image,NULL,imageLabel3681381,badminton
1512403027,3d211102fefb414c475fec1272f1887d,Form,110,0,image,NULL,_REACTION_TIME_,5117
1512403027,3d211102fefb414c475fec1272f1887d,Form,246,0,image,NULL,imageLabel3683685,stick
1512403027,3d211102fefb414c475fec1272f1887d,Form,246,0,image,NULL,_REACTION_TIME_,14286
1512403027,3d211102fefb414c475fec1272f1887d,Form,180,0,image,NULL,imageLabel3683130,hammer
1512403027,3d211102fefb414c475fec1272f1887d,Form,180,0,image,NULL,_REACTION_TIME_,3093
1512403027,3d211102fefb414c475fec1272f1887d,Form,131,0,image,NULL,imageLabel3681651,lemon
1512403027,3d211102fefb414c475fec1272f1887d,Form,131,0,image,NULL,_REACTION_TIME_,6662
1512403027,3d211102fefb414c475fec1272f1887d,Form,171,0,image,NULL,imageLabel3683091,none
1512403027,3d211102fefb414c475fec1272f1887d,Form,171,0,image,NULL,_REACTION_TIME_,26264
1512403027,3d211102fefb414c475fec1272f1887d,Form,112,0,image,NULL,imageLabel3681429,mixer
1512403027,3d211102fefb414c475fec1272f1887d,Form,112,0,image,NULL,_REACTION_TIME_,2877
1512403027,3d211102fefb414c475fec1272f1887d,Form,226,0,image,NULL,imageLabel3683490,canoe 
1512403027,3d211102fefb414c475fec1272f1887d,Form,226,0,image,NULL,_REACTION_TIME_,3687
1512403027,3d211102fefb414c475fec1272f1887d,Form,181,0,image,NULL,imageLabel3683139,pot
1512403027,3d211102fefb414c475fec1272f1887d,Form,181,0,image,NULL,_REACTION_TIME_,2445
1512403027,3d211102fefb414c475fec1272f1887d,Form,123,0,image,NULL,imageLabel3681594,leash 
1512403027,3d211102fefb414c475fec1272f1887d,Form,123,0,image,NULL,_REACTION_TIME_,4605
1512403027,3d211102fefb414c475fec1272f1887d,Form,163,0,image,NULL,imageLabel3683037,rabbit
1512403027,3d211102fefb414c475fec1272f1887d,Form,163,0,image,NULL,_REACTION_TIME_,3799
1512403027,3d211102fefb414c475fec1272f1887d,Form,295,0,image,NULL,imageLabel3684162,mirror
1512403027,3d211102fefb414c475fec1272f1887d,Form,295,0,image,NULL,_REACTION_TIME_,2918
1512403027,3d211102fefb414c475fec1272f1887d,Form,102,0,image,NULL,imageLabel3681324,spoon
1512403027,3d211102fefb414c475fec1272f1887d,Form,102,0,image,NULL,_REACTION_TIME_,3101
1512403027,3d211102fefb414c475fec1272f1887d,Form,149,0,image,NULL,imageLabel3682968,crane
1512403027,3d211102fefb414c475fec1272f1887d,Form,149,0,image,NULL,_REACTION_TIME_,11903
1512403027,3d211102fefb414c475fec1272f1887d,Form,161,0,image,NULL,imageLabel3683025,horseshoe
1512403027,3d211102fefb414c475fec1272f1887d,Form,161,0,image,NULL,_REACTION_TIME_,5398
1512403027,3d211102fefb414c475fec1272f1887d,Form,228,0,image,NULL,imageLabel3683505,pasta
1512403027,3d211102fefb414c475fec1272f1887d,Form,228,0,image,NULL,_REACTION_TIME_,2421
1512403027,3d211102fefb414c475fec1272f1887d,Form,186,0,image,NULL,imageLabel3683169,dustpan
1512403027,3d211102fefb414c475fec1272f1887d,Form,186,0,image,NULL,_REACTION_TIME_,18113
1512403027,3d211102fefb414c475fec1272f1887d,Form,177,0,image,NULL,imageLabel3683118,flute
1512403027,3d211102fefb414c475fec1272f1887d,Form,177,0,image,NULL,_REACTION_TIME_,5807
1512403027,3d211102fefb414c475fec1272f1887d,Form,118,0,image,NULL,imageLabel3681519,thermometer 
1512403027,3d211102fefb414c475fec1272f1887d,Form,118,0,image,NULL,_REACTION_TIME_,4971
1512403027,3d211102fefb414c475fec1272f1887d,Form,283,0,image,NULL,imageLabel3684096,peeler 
1512403027,3d211102fefb414c475fec1272f1887d,Form,283,0,image,NULL,_REACTION_TIME_,4981
1512403027,3d211102fefb414c475fec1272f1887d,Form,44,0,image,NULL,imageLabel3680832,ruler
1512403027,3d211102fefb414c475fec1272f1887d,Form,44,0,image,NULL,_REACTION_TIME_,4454
1512403027,3d211102fefb414c475fec1272f1887d,Form,136,0,image,NULL,imageLabel3681690,spreader 
1512403027,3d211102fefb414c475fec1272f1887d,Form,136,0,image,NULL,_REACTION_TIME_,5782
1512403027,3d211102fefb414c475fec1272f1887d,Form,57,0,image,NULL,imageLabel3680910,duck
1512403027,3d211102fefb414c475fec1272f1887d,Form,57,0,image,NULL,_REACTION_TIME_,2223
1512403027,3d211102fefb414c475fec1272f1887d,Form,205,0,image,NULL,imageLabel3683319,trophy
1512403027,3d211102fefb414c475fec1272f1887d,Form,205,0,image,NULL,_REACTION_TIME_,4773
1512403027,3d211102fefb414c475fec1272f1887d,Form,159,0,image,NULL,imageLabel3683013,carrot
1512403027,3d211102fefb414c475fec1272f1887d,Form,159,0,image,NULL,_REACTION_TIME_,2946
1512403027,3d211102fefb414c475fec1272f1887d,Form,241,0,image,NULL,imageLabel3683601,hinge 
1512403027,3d211102fefb414c475fec1272f1887d,Form,241,0,image,NULL,_REACTION_TIME_,16994
1512403027,3d211102fefb414c475fec1272f1887d,Form,106,0,image,NULL,imageLabel3681348,riffle
1512403027,3d211102fefb414c475fec1272f1887d,Form,106,0,image,NULL,_REACTION_TIME_,4499
1512403027,3d211102fefb414c475fec1272f1887d,Form,119,0,image,NULL,imageLabel3681555,stethoscope
1512403027,3d211102fefb414c475fec1272f1887d,Form,119,0,image,NULL,_REACTION_TIME_,13786
1512403027,3d211102fefb414c475fec1272f1887d,Form,190,0,image,NULL,imageLabel3683235,chair
1512403027,3d211102fefb414c475fec1272f1887d,Form,190,0,image,NULL,_REACTION_TIME_,4971
1512403027,3d211102fefb414c475fec1272f1887d,Form,209,0,image,NULL,imageLabel3683349,shrimp 
1512403027,3d211102fefb414c475fec1272f1887d,Form,209,0,image,NULL,_REACTION_TIME_,6165
1512403027,3d211102fefb414c475fec1272f1887d,Form,274,0,image,NULL,imageLabel3684027,box
1512403027,3d211102fefb414c475fec1272f1887d,Form,274,0,image,NULL,_REACTION_TIME_,3822
1512403027,3d211102fefb414c475fec1272f1887d,Form,31,0,image,NULL,imageLabel3680718,wallet
1512403027,3d211102fefb414c475fec1272f1887d,Form,31,0,image,NULL,_REACTION_TIME_,3246
1512403027,3d211102fefb414c475fec1272f1887d,Form,206,0,image,NULL,imageLabel3683322,owl
1512403027,3d211102fefb414c475fec1272f1887d,Form,206,0,image,NULL,_REACTION_TIME_,2230
1512403027,3d211102fefb414c475fec1272f1887d,Form,19,0,image,NULL,imageLabel3680649,chair
1512403027,3d211102fefb414c475fec1272f1887d,Form,19,0,image,NULL,_REACTION_TIME_,3949
1512403027,3d211102fefb414c475fec1272f1887d,Form,287,0,image,NULL,imageLabel3684111,zebra
1512403027,3d211102fefb414c475fec1272f1887d,Form,287,0,image,NULL,_REACTION_TIME_,2629
1512403027,3d211102fefb414c475fec1272f1887d,Form,98,0,image,NULL,imageLabel3681276,calendar
1512403027,3d211102fefb414c475fec1272f1887d,Form,98,0,image,NULL,_REACTION_TIME_,4207
1512403027,3d211102fefb414c475fec1272f1887d,Form,116,0,image,NULL,imageLabel3681498,ring
1512403027,3d211102fefb414c475fec1272f1887d,Form,116,0,image,NULL,_REACTION_TIME_,2573
1512403027,3d211102fefb414c475fec1272f1887d,Form,113,0,image,NULL,imageLabel3681459,none
1512403027,3d211102fefb414c475fec1272f1887d,Form,113,0,image,NULL,_REACTION_TIME_,5797
1512403027,3d211102fefb414c475fec1272f1887d,Form,197,0,image,NULL,imageLabel3683274,barrel
1512403027,3d211102fefb414c475fec1272f1887d,Form,197,0,image,NULL,_REACTION_TIME_,3701
1512403027,3d211102fefb414c475fec1272f1887d,Form,251,0,image,NULL,imageLabel3683739,reed
1512403027,3d211102fefb414c475fec1272f1887d,Form,251,0,image,NULL,_REACTION_TIME_,13166
1512403027,3d211102fefb414c475fec1272f1887d,Form,236,0,image,NULL,imageLabel3683538,blender
1512403027,3d211102fefb414c475fec1272f1887d,Form,236,0,image,NULL,_REACTION_TIME_,9150
1512403027,3d211102fefb414c475fec1272f1887d,Form,62,0,image,NULL,imageLabel3680943,cancer
1512403027,3d211102fefb414c475fec1272f1887d,Form,62,0,image,NULL,_REACTION_TIME_,5758
1512403027,3d211102fefb414c475fec1272f1887d,Form,28,0,image,NULL,imageLabel3680703,tambourine
1512403027,3d211102fefb414c475fec1272f1887d,Form,28,0,image,NULL,_REACTION_TIME_,15789
1512403027,3d211102fefb414c475fec1272f1887d,Form,25,0,image,NULL,imageLabel3680694,ball
1512403027,3d211102fefb414c475fec1272f1887d,Form,25,0,image,NULL,_REACTION_TIME_,2781
1512403027,3d211102fefb414c475fec1272f1887d,Form,225,0,image,NULL,imageLabel3683481,lemon
1512403027,3d211102fefb414c475fec1272f1887d,Form,225,0,image,NULL,_REACTION_TIME_,4392
1512403027,3d211102fefb414c475fec1272f1887d,Form,143,0,image,NULL,imageLabel3681729,snail
1512403027,3d211102fefb414c475fec1272f1887d,Form,143,0,image,NULL,_REACTION_TIME_,2501
1512403027,3d211102fefb414c475fec1272f1887d,Form,200,0,image,NULL,imageLabel3683289,cigar 
1512403027,3d211102fefb414c475fec1272f1887d,Form,200,0,image,NULL,_REACTION_TIME_,10350
1512403027,3d211102fefb414c475fec1272f1887d,Form,270,0,image,NULL,imageLabel3684000,dog
1512403027,3d211102fefb414c475fec1272f1887d,Form,270,0,image,NULL,_REACTION_TIME_,2654
1512403027,3d211102fefb414c475fec1272f1887d,Form,154,0,image,NULL,imageLabel3682989,cauliflower 
1512403027,3d211102fefb414c475fec1272f1887d,Form,154,0,image,NULL,_REACTION_TIME_,8477
1512403027,3d211102fefb414c475fec1272f1887d,Form,204,0,image,NULL,imageLabel3683316,feather
1512403027,3d211102fefb414c475fec1272f1887d,Form,204,0,image,NULL,_REACTION_TIME_,4038
1512403027,3d211102fefb414c475fec1272f1887d,Form,125,0,image,NULL,imageLabel3681612,pot
1512403027,3d211102fefb414c475fec1272f1887d,Form,125,0,image,NULL,_REACTION_TIME_,5137
1512403027,3d211102fefb414c475fec1272f1887d,Form,196,0,image,NULL,imageLabel3683271,peeler 
1512403027,3d211102fefb414c475fec1272f1887d,Form,196,0,image,NULL,_REACTION_TIME_,6293
1512403027,3d211102fefb414c475fec1272f1887d,Form,76,0,image,NULL,imageLabel3681066,bale
1512403027,3d211102fefb414c475fec1272f1887d,Form,76,0,image,NULL,_REACTION_TIME_,5909
1512403027,3d211102fefb414c475fec1272f1887d,Form,229,0,image,NULL,imageLabel3683508,tiger
1512403027,3d211102fefb414c475fec1272f1887d,Form,229,0,image,NULL,_REACTION_TIME_,2654
1512403027,3d211102fefb414c475fec1272f1887d,Form,195,0,image,NULL,imageLabel3683265,lipstick
1512403027,3d211102fefb414c475fec1272f1887d,Form,195,0,image,NULL,_REACTION_TIME_,3976
1512403027,3d211102fefb414c475fec1272f1887d,Form,7,0,image,NULL,imageLabel3680583,cabbage
1512403027,3d211102fefb414c475fec1272f1887d,Form,7,0,image,NULL,_REACTION_TIME_,3293
1512403027,3d211102fefb414c475fec1272f1887d,Form,6,0,image,NULL,imageLabel3680577,doughnut 
1512403027,3d211102fefb414c475fec1272f1887d,Form,6,0,image,NULL,_REACTION_TIME_,5149
1512403027,3d211102fefb414c475fec1272f1887d,Form,105,0,image,NULL,imageLabel3681336,cologne 
1512403027,3d211102fefb414c475fec1272f1887d,Form,105,0,image,NULL,_REACTION_TIME_,4982
1512403027,3d211102fefb414c475fec1272f1887d,Form,38,0,image,NULL,imageLabel3680760,pinaple
1512403027,3d211102fefb414c475fec1272f1887d,Form,38,0,image,NULL,_REACTION_TIME_,3247
1512403027,3d211102fefb414c475fec1272f1887d,Form,103,0,image,NULL,imageLabel3681330,cage
1512403027,3d211102fefb414c475fec1272f1887d,Form,103,0,image,NULL,_REACTION_TIME_,2374
1512403027,3d211102fefb414c475fec1272f1887d,Form,26,0,image,NULL,imageLabel3680697,mug
1512403027,3d211102fefb414c475fec1272f1887d,Form,26,0,image,NULL,_REACTION_TIME_,3026
1512403027,3d211102fefb414c475fec1272f1887d,Form,65,0,image,NULL,imageLabel3680976,nut
1512403027,3d211102fefb414c475fec1272f1887d,Form,65,0,image,NULL,_REACTION_TIME_,4116
1512403027,3d211102fefb414c475fec1272f1887d,Form,13,0,image,NULL,imageLabel3680616,tank
1512403027,3d211102fefb414c475fec1272f1887d,Form,13,0,image,NULL,_REACTION_TIME_,2373
1512403027,3d211102fefb414c475fec1272f1887d,Form,178,0,image,NULL,imageLabel3683124,luggage 
1512403027,3d211102fefb414c475fec1272f1887d,Form,178,0,image,NULL,_REACTION_TIME_,8814
1512403027,3d211102fefb414c475fec1272f1887d,Form,94,0,image,NULL,imageLabel3681195,screw
1512403027,3d211102fefb414c475fec1272f1887d,Form,94,0,image,NULL,_REACTION_TIME_,4148
1512403027,3d211102fefb414c475fec1272f1887d,Form,24,0,image,NULL,imageLabel3680685,tambourine
1512403027,3d211102fefb414c475fec1272f1887d,Form,24,0,image,NULL,_REACTION_TIME_,7778
1512403027,3d211102fefb414c475fec1272f1887d,Form,91,0,image,NULL,imageLabel3681144,vase
1512403027,3d211102fefb414c475fec1272f1887d,Form,91,0,image,NULL,_REACTION_TIME_,6965
1512403027,3d211102fefb414c475fec1272f1887d,Form,42,0,image,NULL,imageLabel3680793,cattle
1512403027,3d211102fefb414c475fec1272f1887d,Form,42,0,image,NULL,_REACTION_TIME_,4030
1512403027,3d211102fefb414c475fec1272f1887d,Form,211,0,image,NULL,imageLabel3683373,typewriter
1512403027,3d211102fefb414c475fec1272f1887d,Form,211,0,image,NULL,_REACTION_TIME_,3622
1512403027,3d211102fefb414c475fec1272f1887d,Form,289,0,image,NULL,imageLabel3684123,camera
1512403027,3d211102fefb414c475fec1272f1887d,Form,289,0,image,NULL,_REACTION_TIME_,2815
1512403027,3d211102fefb414c475fec1272f1887d,Form,87,0,image,NULL,imageLabel3681126,flashlight 
1512403027,3d211102fefb414c475fec1272f1887d,Form,87,0,image,NULL,_REACTION_TIME_,4229
1512403027,3d211102fefb414c475fec1272f1887d,Form,41,0,image,NULL,imageLabel3680784,faucet 
1512403027,3d211102fefb414c475fec1272f1887d,Form,41,0,image,NULL,_REACTION_TIME_,5662
1512403027,3d211102fefb414c475fec1272f1887d,Form,266,0,image,NULL,imageLabel3683961,manometer
1512403027,3d211102fefb414c475fec1272f1887d,Form,266,0,image,NULL,_REACTION_TIME_,7511
1512403027,3d211102fefb414c475fec1272f1887d,Form,235,0,image,NULL,imageLabel3683535,violin
1512403027,3d211102fefb414c475fec1272f1887d,Form,235,0,image,NULL,_REACTION_TIME_,3900
1512403027,3d211102fefb414c475fec1272f1887d,Form,5,0,image,NULL,imageLabel3680571,candy
1512403027,3d211102fefb414c475fec1272f1887d,Form,5,0,image,NULL,_REACTION_TIME_,2709
1512403027,3d211102fefb414c475fec1272f1887d,Form,142,0,image,NULL,imageLabel3681717,shoes
1512403027,3d211102fefb414c475fec1272f1887d,Form,142,0,image,NULL,_REACTION_TIME_,4157
1512403027,3d211102fefb414c475fec1272f1887d,Form,252,0,image,NULL,imageLabel3683742,mirror
1512403027,3d211102fefb414c475fec1272f1887d,Form,252,0,image,NULL,_REACTION_TIME_,6381
1512403027,3d211102fefb414c475fec1272f1887d,Form,187,0,image,NULL,imageLabel3683181,fish
1512403027,3d211102fefb414c475fec1272f1887d,Form,187,0,image,NULL,_REACTION_TIME_,2637
1512403027,3d211102fefb414c475fec1272f1887d,Form,122,0,image,NULL,imageLabel3681582,plate
1512403027,3d211102fefb414c475fec1272f1887d,Form,122,0,image,NULL,_REACTION_TIME_,4406
1512403027,3d211102fefb414c475fec1272f1887d,Form,248,0,image,NULL,imageLabel3683718,stand
1512403027,3d211102fefb414c475fec1272f1887d,Form,248,0,image,NULL,_REACTION_TIME_,3773
1512403027,3d211102fefb414c475fec1272f1887d,Form,121,0,image,NULL,imageLabel3681573,rooster
1512403027,3d211102fefb414c475fec1272f1887d,Form,121,0,image,NULL,_REACTION_TIME_,2599
1512403027,3d211102fefb414c475fec1272f1887d,Form,179,0,image,NULL,imageLabel3683127,rack
1512403027,3d211102fefb414c475fec1272f1887d,Form,179,0,image,NULL,_REACTION_TIME_,11805
1512403027,3d211102fefb414c475fec1272f1887d,Form,193,0,image,NULL,imageLabel3683250,stethoscope  
1512403027,3d211102fefb414c475fec1272f1887d,Form,193,0,image,NULL,_REACTION_TIME_,12357
1512403027,3d211102fefb414c475fec1272f1887d,Form,29,0,image,NULL,imageLabel3680706,cheese
1512403027,3d211102fefb414c475fec1272f1887d,Form,29,0,image,NULL,_REACTION_TIME_,2630
1512403027,3d211102fefb414c475fec1272f1887d,Form,36,0,image,NULL,imageLabel3680742,cup
1512403027,3d211102fefb414c475fec1272f1887d,Form,36,0,image,NULL,_REACTION_TIME_,6565
1512403027,3d211102fefb414c475fec1272f1887d,Form,215,0,image,NULL,imageLabel3683412,comb 
1512403027,3d211102fefb414c475fec1272f1887d,Form,215,0,image,NULL,_REACTION_TIME_,5935
1512403027,3d211102fefb414c475fec1272f1887d,Form,93,0,image,NULL,imageLabel3681177,bicycle
1512403027,3d211102fefb414c475fec1272f1887d,Form,93,0,image,NULL,_REACTION_TIME_,3837
1512403027,3d211102fefb414c475fec1272f1887d,Form,124,0,image,NULL,imageLabel3681606,train
1512403027,3d211102fefb414c475fec1272f1887d,Form,124,0,image,NULL,_REACTION_TIME_,2899
1512403027,3d211102fefb414c475fec1272f1887d,Form,27,0,image,NULL,imageLabel3680700,star
1512403027,3d211102fefb414c475fec1272f1887d,Form,27,0,image,NULL,_REACTION_TIME_,2639
1512403027,3d211102fefb414c475fec1272f1887d,Form,130,0,image,NULL,imageLabel3681645,lock
1512403027,3d211102fefb414c475fec1272f1887d,Form,130,0,image,NULL,_REACTION_TIME_,2331
1512403027,3d211102fefb414c475fec1272f1887d,Form,109,0,image,NULL,imageLabel3681378,slingshot
1512403027,3d211102fefb414c475fec1272f1887d,Form,109,0,image,NULL,_REACTION_TIME_,15877
1512403027,3d211102fefb414c475fec1272f1887d,Form,269,0,image,NULL,imageLabel3683988,dishwasher
1512403027,3d211102fefb414c475fec1272f1887d,Form,269,0,image,NULL,_REACTION_TIME_,4805
1512403027,3d211102fefb414c475fec1272f1887d,Form,212,0,image,NULL,imageLabel3683382,coconut
1512403027,3d211102fefb414c475fec1272f1887d,Form,212,0,image,NULL,_REACTION_TIME_,422597
1512403027,3d211102fefb414c475fec1272f1887d,Form,160,0,image,NULL,imageLabel3683022,rocket 
1512403027,3d211102fefb414c475fec1272f1887d,Form,160,0,image,NULL,_REACTION_TIME_,5003
1512403027,3d211102fefb414c475fec1272f1887d,Form,237,0,image,NULL,imageLabel3683547,bird
1512403027,3d211102fefb414c475fec1272f1887d,Form,237,0,image,NULL,_REACTION_TIME_,3112
1512403027,3d211102fefb414c475fec1272f1887d,Form,188,0,image,NULL,imageLabel3683190,tub
1512403027,3d211102fefb414c475fec1272f1887d,Form,188,0,image,NULL,_REACTION_TIME_,2890
1512403027,3d211102fefb414c475fec1272f1887d,Form,291,0,image,NULL,imageLabel3684141,scales
1512403027,3d211102fefb414c475fec1272f1887d,Form,291,0,image,NULL,_REACTION_TIME_,6078
1512403027,3d211102fefb414c475fec1272f1887d,Form,18,0,image,NULL,imageLabel3680643,glove
1512403027,3d211102fefb414c475fec1272f1887d,Form,18,0,image,NULL,_REACTION_TIME_,6101
1512403027,3d211102fefb414c475fec1272f1887d,Form,265,0,image,NULL,imageLabel3683925,thermometer
1512403027,3d211102fefb414c475fec1272f1887d,Form,265,0,image,NULL,_REACTION_TIME_,4854
