#
# Results on Monday December 11 2017 14:45:40 UTC.
# USER AGENT: Mozilla/5.0 (Windows NT 10.0; Win64; x64) AppleWebKit/537.36 (KHTML, like Gecko) Chrome/62.0.3202.94 Safari/537.36
# Design number was non-random = 64
#
# Columns below this comment are as follows:
# 1. Time results were received.
# 2. MD5 hash of participant's IP address.
# 3. Controller name.
# 4. Item number.
# 5. Element number.
# 6. Type.
# 7. Group.
# 8. Field name.
# 9. Field value.
1513003540,4d746d235e3651899a1f17adc36c8142,Form,0,0,intro,NULL,_REACTION_TIME_,34289
1513003540,4d746d235e3651899a1f17adc36c8142,Form,121,3,image,24,2+60+120+0_1+120+60+1_2+120+60+2,1+120+60+1
1513003540,4d746d235e3651899a1f17adc36c8142,Form,121,3,image,24,_REACTION_TIME_,5158
1513003540,4d746d235e3651899a1f17adc36c8142,Form,108,3,image,21,1+120+120+0_1+120+60+1_2+120+60+2,1+120+120+0
1513003540,4d746d235e3651899a1f17adc36c8142,Form,108,3,image,21,_REACTION_TIME_,4625
1513003540,4d746d235e3651899a1f17adc36c8142,Form,90,3,image,18,2+120+60+0_2+60+120+1_1+120+120+2,1+120+120+2
1513003540,4d746d235e3651899a1f17adc36c8142,Form,90,3,image,18,_REACTION_TIME_,6796
1513003540,4d746d235e3651899a1f17adc36c8142,Form,183,3,image,36,2+60+120+0_1+120+60+1_1+120+120+2,1+120+120+2
1513003540,4d746d235e3651899a1f17adc36c8142,Form,183,3,image,36,_REACTION_TIME_,5562
1513003540,4d746d235e3651899a1f17adc36c8142,Form,21,3,image,4,2+120+120+0_1+60+120+1_1+120+60+2,1+60+120+1
1513003540,4d746d235e3651899a1f17adc36c8142,Form,21,3,image,4,_REACTION_TIME_,2496
1513003540,4d746d235e3651899a1f17adc36c8142,Form,9,3,image,2,2+120+120+0_1+120+120+1_2+120+60+2,2+120+120+0
1513003540,4d746d235e3651899a1f17adc36c8142,Form,9,3,image,2,_REACTION_TIME_,2941
1513003540,4d746d235e3651899a1f17adc36c8142,Form,71,3,image,14,2+120+120+0_1+120+60+1_2+120+60+2,1+120+60+1
1513003540,4d746d235e3651899a1f17adc36c8142,Form,71,3,image,14,_REACTION_TIME_,2350
1513003540,4d746d235e3651899a1f17adc36c8142,Form,140,3,image,28,2+60+120+0_1+120+120+1_2+120+120+2,1+120+120+1
1513003540,4d746d235e3651899a1f17adc36c8142,Form,140,3,image,28,_REACTION_TIME_,2648
1513003540,4d746d235e3651899a1f17adc36c8142,Form,77,3,image,15,1+60+120+0_1+120+120+1_2+120+60+2,1+120+120+1
1513003540,4d746d235e3651899a1f17adc36c8142,Form,77,3,image,15,_REACTION_TIME_,2091
1513003540,4d746d235e3651899a1f17adc36c8142,Form,58,3,image,11,2+120+120+0_2+60+120+1_1+120+60+2,2+120+120+0
1513003540,4d746d235e3651899a1f17adc36c8142,Form,58,3,image,11,_REACTION_TIME_,5548
1513003540,4d746d235e3651899a1f17adc36c8142,Form,171,3,image,34,1+60+120+0_1+120+60+1_2+120+60+2,2+120+60+2
1513003540,4d746d235e3651899a1f17adc36c8142,Form,171,3,image,34,_REACTION_TIME_,5379
1513003540,4d746d235e3651899a1f17adc36c8142,Form,152,3,image,30,2+60+120+0_2+120+60+1_1+120+60+2,1+120+60+2
1513003540,4d746d235e3651899a1f17adc36c8142,Form,152,3,image,30,_REACTION_TIME_,3851
1513003540,4d746d235e3651899a1f17adc36c8142,Form,52,3,image,10,2+120+60+0_1+120+60+1_1+120+120+2,1+120+60+1
1513003540,4d746d235e3651899a1f17adc36c8142,Form,52,3,image,10,_REACTION_TIME_,4633
1513003540,4d746d235e3651899a1f17adc36c8142,Form,109,3,image,22,1+120+120+0_1+120+60+1_2+120+120+2,1+120+120+0
1513003540,4d746d235e3651899a1f17adc36c8142,Form,109,3,image,22,_REACTION_TIME_,2831
1513003540,4d746d235e3651899a1f17adc36c8142,Form,146,3,image,29,2+120+60+0_1+120+120+1_2+60+120+2,2+60+120+2
1513003540,4d746d235e3651899a1f17adc36c8142,Form,146,3,image,29,_REACTION_TIME_,3948
1513003540,4d746d235e3651899a1f17adc36c8142,Form,59,3,image,12,2+120+120+0_1+60+120+1_1+120+60+2,1+120+60+2
1513003540,4d746d235e3651899a1f17adc36c8142,Form,59,3,image,12,_REACTION_TIME_,4552
1513003540,4d746d235e3651899a1f17adc36c8142,Form,65,3,image,13,1+60+120+0_2+60+120+1_2+120+60+2,2+60+120+1
1513003540,4d746d235e3651899a1f17adc36c8142,Form,65,3,image,13,_REACTION_TIME_,4226
1513003540,4d746d235e3651899a1f17adc36c8142,Form,133,3,image,26,2+120+60+0_2+60+120+1_1+60+120+2,2+60+120+1
1513003540,4d746d235e3651899a1f17adc36c8142,Form,133,3,image,26,_REACTION_TIME_,3353
1513003540,4d746d235e3651899a1f17adc36c8142,Form,83,3,image,16,2+120+120+0_1+120+60+1_2+60+120+2,2+120+120+0
1513003540,4d746d235e3651899a1f17adc36c8142,Form,83,3,image,16,_REACTION_TIME_,3043
1513003540,4d746d235e3651899a1f17adc36c8142,Form,165,3,image,33,1+60+120+0_2+120+120+1_2+60+120+2,2+120+120+1
1513003540,4d746d235e3651899a1f17adc36c8142,Form,165,3,image,33,_REACTION_TIME_,2151
1513003540,4d746d235e3651899a1f17adc36c8142,Form,8,3,image,1,2+120+60+0_2+120+120+1_1+120+120+2,2+120+120+1
1513003540,4d746d235e3651899a1f17adc36c8142,Form,8,3,image,1,_REACTION_TIME_,2562
1513003540,4d746d235e3651899a1f17adc36c8142,Form,115,3,image,23,2+120+120+0_1+120+60+1_1+60+120+2,2+120+120+0
1513003540,4d746d235e3651899a1f17adc36c8142,Form,115,3,image,23,_REACTION_TIME_,3512
1513003540,4d746d235e3651899a1f17adc36c8142,Form,34,3,image,7,1+120+120+0_2+120+60+1_1+60+120+2,1+120+120+0
1513003540,4d746d235e3651899a1f17adc36c8142,Form,34,3,image,7,_REACTION_TIME_,1743
1513003540,4d746d235e3651899a1f17adc36c8142,Form,177,3,image,35,1+60+120+0_1+120+120+1_2+120+120+2,1+120+120+1
1513003540,4d746d235e3651899a1f17adc36c8142,Form,177,3,image,35,_REACTION_TIME_,1682
1513003540,4d746d235e3651899a1f17adc36c8142,Form,33,3,image,6,2+60+120+0_2+120+120+1_1+120+120+2,2+120+120+1
1513003540,4d746d235e3651899a1f17adc36c8142,Form,33,3,image,6,_REACTION_TIME_,2296
1513003540,4d746d235e3651899a1f17adc36c8142,Form,27,3,image,5,1+120+60+0_1+60+120+1_1+120+120+2,1+120+120+2
1513003540,4d746d235e3651899a1f17adc36c8142,Form,27,3,image,5,_REACTION_TIME_,2935
1513003540,4d746d235e3651899a1f17adc36c8142,Form,15,3,image,3,2+120+60+0_2+60+120+1_1+120+60+2,2+60+120+1
1513003540,4d746d235e3651899a1f17adc36c8142,Form,15,3,image,3,_REACTION_TIME_,2731
1513003540,4d746d235e3651899a1f17adc36c8142,Form,134,3,image,27,1+60+120+0_1+120+60+1_2+120+60+2,1+120+60+1
1513003540,4d746d235e3651899a1f17adc36c8142,Form,134,3,image,27,_REACTION_TIME_,3957
1513003540,4d746d235e3651899a1f17adc36c8142,Form,102,3,image,20,2+60+120+0_1+60+120+1_2+120+120+2,1+60+120+1
1513003540,4d746d235e3651899a1f17adc36c8142,Form,102,3,image,20,_REACTION_TIME_,4840
1513003540,4d746d235e3651899a1f17adc36c8142,Form,40,3,image,8,2+120+120+0_1+60+120+1_1+120+60+2,2+120+120+0
1513003540,4d746d235e3651899a1f17adc36c8142,Form,40,3,image,8,_REACTION_TIME_,2411
1513003540,4d746d235e3651899a1f17adc36c8142,Form,84,3,image,17,2+120+120+0_1+120+120+1_1+60+120+2,1+120+120+1
1513003540,4d746d235e3651899a1f17adc36c8142,Form,84,3,image,17,_REACTION_TIME_,3086
1513003540,4d746d235e3651899a1f17adc36c8142,Form,159,3,image,32,1+120+60+0_2+60+120+1_1+120+120+2,1+120+120+2
1513003540,4d746d235e3651899a1f17adc36c8142,Form,159,3,image,32,_REACTION_TIME_,2765
1513003540,4d746d235e3651899a1f17adc36c8142,Form,96,3,image,19,1+120+60+0_1+120+120+1_2+120+120+2,1+120+120+1
1513003540,4d746d235e3651899a1f17adc36c8142,Form,96,3,image,19,_REACTION_TIME_,2257
1513003540,4d746d235e3651899a1f17adc36c8142,Form,127,3,image,25,1+60+120+0_2+120+120+1_2+120+60+2,1+60+120+0
1513003540,4d746d235e3651899a1f17adc36c8142,Form,127,3,image,25,_REACTION_TIME_,3198
1513003540,4d746d235e3651899a1f17adc36c8142,Form,158,3,image,31,1+60+120+0_2+120+60+1_2+60+120+2,2+60+120+2
1513003540,4d746d235e3651899a1f17adc36c8142,Form,158,3,image,31,_REACTION_TIME_,2376
1513003540,4d746d235e3651899a1f17adc36c8142,Form,46,3,image,9,2+120+60+0_2+120+120+1_2+60+120+2,2+120+120+1
1513003540,4d746d235e3651899a1f17adc36c8142,Form,46,3,image,9,_REACTION_TIME_,1850
1513003540,4d746d235e3651899a1f17adc36c8142,Form,1,0,debrief,NULL,purpose,How we read and interpret
1513003540,4d746d235e3651899a1f17adc36c8142,Form,1,0,debrief,NULL,comments,no
1513003540,4d746d235e3651899a1f17adc36c8142,Form,1,0,debrief,NULL,language,native
1513003540,4d746d235e3651899a1f17adc36c8142,Form,1,0,debrief,NULL,_REACTION_TIME_,12220
#
# Results on Monday December 11 2017 15:13:15 UTC.
# USER AGENT: Mozilla/5.0 (X11; CrOS x86_64 9901.77.0) AppleWebKit/537.36 (KHTML, like Gecko) Chrome/62.0.3202.97 Safari/537.36
# Design number was non-random = 65
#
# Columns below this comment are as follows:
# 1. Time results were received.
# 2. MD5 hash of participant's IP address.
# 3. Controller name.
# 4. Item number.
# 5. Element number.
# 6. Type.
# 7. Group.
# 8. Field name.
# 9. Field value.
1513005195,828487ffa8a1bf76c206a0646e40e721,Form,0,0,intro,NULL,_REACTION_TIME_,66313
1513005195,828487ffa8a1bf76c206a0646e40e721,Form,16,3,image,3,1+120+60+0_1+120+120+1_2+60+120+2,1+120+120+1
1513005195,828487ffa8a1bf76c206a0646e40e721,Form,16,3,image,3,_REACTION_TIME_,9846
1513005195,828487ffa8a1bf76c206a0646e40e721,Form,178,3,image,35,2+120+60+0_1+120+120+1_2+60+120+2,2+60+120+2
1513005195,828487ffa8a1bf76c206a0646e40e721,Form,178,3,image,35,_REACTION_TIME_,10204
1513005195,828487ffa8a1bf76c206a0646e40e721,Form,47,3,image,9,2+120+60+0_2+120+120+1_1+120+120+2,1+120+120+2
1513005195,828487ffa8a1bf76c206a0646e40e721,Form,47,3,image,9,_REACTION_TIME_,5789
1513005195,828487ffa8a1bf76c206a0646e40e721,Form,78,3,image,15,1+120+120+0_2+120+60+1_2+120+120+2,2+120+120+2
1513005195,828487ffa8a1bf76c206a0646e40e721,Form,78,3,image,15,_REACTION_TIME_,5609
1513005195,828487ffa8a1bf76c206a0646e40e721,Form,104,3,image,21,1+120+60+0_1+120+120+1_2+120+60+2,1+120+120+1
1513005195,828487ffa8a1bf76c206a0646e40e721,Form,104,3,image,21,_REACTION_TIME_,7554
1513005195,828487ffa8a1bf76c206a0646e40e721,Form,53,3,image,10,2+120+60+0_1+120+60+1_2+120+120+2,2+120+120+2
1513005195,828487ffa8a1bf76c206a0646e40e721,Form,53,3,image,10,_REACTION_TIME_,8163
1513005195,828487ffa8a1bf76c206a0646e40e721,Form,128,3,image,25,2+60+120+0_1+120+60+1_1+60+120+2,2+60+120+0
1513005195,828487ffa8a1bf76c206a0646e40e721,Form,128,3,image,25,_REACTION_TIME_,5278
1513005195,828487ffa8a1bf76c206a0646e40e721,Form,28,3,image,5,1+120+60+0_2+120+120+1_1+120+120+2,2+120+120+1
1513005195,828487ffa8a1bf76c206a0646e40e721,Form,28,3,image,5,_REACTION_TIME_,4078
1513005195,828487ffa8a1bf76c206a0646e40e721,Form,141,3,image,28,2+60+120+0_1+60+120+1_1+120+120+2,1+60+120+1
1513005195,828487ffa8a1bf76c206a0646e40e721,Form,141,3,image,28,_REACTION_TIME_,11562
1513005195,828487ffa8a1bf76c206a0646e40e721,Form,54,3,image,11,2+120+120+0_1+120+120+1_2+120+60+2,1+120+120+1
1513005195,828487ffa8a1bf76c206a0646e40e721,Form,54,3,image,11,_REACTION_TIME_,4841
1513005195,828487ffa8a1bf76c206a0646e40e721,Form,79,3,image,16,1+120+60+0_2+120+120+1_2+120+60+2,1+120+60+0
1513005195,828487ffa8a1bf76c206a0646e40e721,Form,79,3,image,16,_REACTION_TIME_,10205
1513005195,828487ffa8a1bf76c206a0646e40e721,Form,116,3,image,23,2+60+120+0_1+120+60+1_2+120+120+2,1+120+60+1
1513005195,828487ffa8a1bf76c206a0646e40e721,Form,116,3,image,23,_REACTION_TIME_,3333
1513005195,828487ffa8a1bf76c206a0646e40e721,Form,122,3,image,24,1+120+120+0_1+120+60+1_2+120+120+2,1+120+120+0
1513005195,828487ffa8a1bf76c206a0646e40e721,Form,122,3,image,24,_REACTION_TIME_,12768
1513005195,828487ffa8a1bf76c206a0646e40e721,Form,147,3,image,29,1+60+120+0_2+120+60+1_2+60+120+2,2+60+120+2
1513005195,828487ffa8a1bf76c206a0646e40e721,Form,147,3,image,29,_REACTION_TIME_,25274
1513005195,828487ffa8a1bf76c206a0646e40e721,Form,72,3,image,14,1+120+120+0_2+120+120+1_1+120+60+2,1+120+120+0
1513005195,828487ffa8a1bf76c206a0646e40e721,Form,72,3,image,14,_REACTION_TIME_,8696
1513005195,828487ffa8a1bf76c206a0646e40e721,Form,154,3,image,31,1+120+120+0_2+120+60+1_2+60+120+2,1+120+120+0
1513005195,828487ffa8a1bf76c206a0646e40e721,Form,154,3,image,31,_REACTION_TIME_,8170
1513005195,828487ffa8a1bf76c206a0646e40e721,Form,10,3,image,2,2+120+60+0_1+120+120+1_1+120+60+2,1+120+120+1
1513005195,828487ffa8a1bf76c206a0646e40e721,Form,10,3,image,2,_REACTION_TIME_,16457
1513005195,828487ffa8a1bf76c206a0646e40e721,Form,129,3,image,26,2+120+60+0_2+60+120+1_2+120+120+2,2+120+120+2
1513005195,828487ffa8a1bf76c206a0646e40e721,Form,129,3,image,26,_REACTION_TIME_,7909
1513005195,828487ffa8a1bf76c206a0646e40e721,Form,60,3,image,12,2+120+60+0_1+120+60+1_1+60+120+2,2+120+60+0
1513005195,828487ffa8a1bf76c206a0646e40e721,Form,60,3,image,12,_REACTION_TIME_,6958
1513005195,828487ffa8a1bf76c206a0646e40e721,Form,4,3,image,1,1+120+120+0_1+60+120+1_1+120+60+2,1+120+120+0
1513005195,828487ffa8a1bf76c206a0646e40e721,Form,4,3,image,1,_REACTION_TIME_,4517
1513005195,828487ffa8a1bf76c206a0646e40e721,Form,153,3,image,30,2+60+120+0_2+120+60+1_1+120+60+2,2+60+120+0
1513005195,828487ffa8a1bf76c206a0646e40e721,Form,153,3,image,30,_REACTION_TIME_,5790
1513005195,828487ffa8a1bf76c206a0646e40e721,Form,110,3,image,22,2+120+60+0_1+120+60+1_2+120+120+2,2+120+120+2
1513005195,828487ffa8a1bf76c206a0646e40e721,Form,110,3,image,22,_REACTION_TIME_,5908
1513005195,828487ffa8a1bf76c206a0646e40e721,Form,135,3,image,27,2+60+120+0_1+60+120+1_2+120+60+2,2+60+120+0
1513005195,828487ffa8a1bf76c206a0646e40e721,Form,135,3,image,27,_REACTION_TIME_,5481
1513005195,828487ffa8a1bf76c206a0646e40e721,Form,66,3,image,13,1+120+120+0_2+60+120+1_1+120+60+2,2+60+120+1
1513005195,828487ffa8a1bf76c206a0646e40e721,Form,66,3,image,13,_REACTION_TIME_,2713
1513005195,828487ffa8a1bf76c206a0646e40e721,Form,35,3,image,7,2+120+120+0_2+120+60+1_1+120+120+2,2+120+120+0
1513005195,828487ffa8a1bf76c206a0646e40e721,Form,35,3,image,7,_REACTION_TIME_,7572
1513005195,828487ffa8a1bf76c206a0646e40e721,Form,179,3,image,36,2+60+120+0_1+120+120+1_2+120+120+2,1+120+120+1
1513005195,828487ffa8a1bf76c206a0646e40e721,Form,179,3,image,36,_REACTION_TIME_,6752
1513005195,828487ffa8a1bf76c206a0646e40e721,Form,97,3,image,19,1+60+120+0_1+120+120+1_2+120+60+2,1+120+120+1
1513005195,828487ffa8a1bf76c206a0646e40e721,Form,97,3,image,19,_REACTION_TIME_,4522
1513005195,828487ffa8a1bf76c206a0646e40e721,Form,103,3,image,20,2+60+120+0_1+120+120+1_2+120+120+2,2+60+120+0
1513005195,828487ffa8a1bf76c206a0646e40e721,Form,103,3,image,20,_REACTION_TIME_,6269
1513005195,828487ffa8a1bf76c206a0646e40e721,Form,91,3,image,18,1+120+120+0_1+60+120+1_2+120+120+2,1+60+120+1
1513005195,828487ffa8a1bf76c206a0646e40e721,Form,91,3,image,18,_REACTION_TIME_,2965
1513005195,828487ffa8a1bf76c206a0646e40e721,Form,166,3,image,33,2+120+60+0_2+60+120+1_1+60+120+2,2+60+120+1
1513005195,828487ffa8a1bf76c206a0646e40e721,Form,166,3,image,33,_REACTION_TIME_,4238
1513005195,828487ffa8a1bf76c206a0646e40e721,Form,41,3,image,8,1+120+120+0_2+120+60+1_1+120+60+2,1+120+120+0
1513005195,828487ffa8a1bf76c206a0646e40e721,Form,41,3,image,8,_REACTION_TIME_,4128
1513005195,828487ffa8a1bf76c206a0646e40e721,Form,29,3,image,6,1+120+120+0_1+60+120+1_2+120+60+2,1+120+120+0
1513005195,828487ffa8a1bf76c206a0646e40e721,Form,29,3,image,6,_REACTION_TIME_,3416
1513005195,828487ffa8a1bf76c206a0646e40e721,Form,172,3,image,34,1+120+120+0_2+60+120+1_1+120+60+2,1+120+120+0
1513005195,828487ffa8a1bf76c206a0646e40e721,Form,172,3,image,34,_REACTION_TIME_,5290
1513005195,828487ffa8a1bf76c206a0646e40e721,Form,160,3,image,32,1+60+120+0_2+60+120+1_1+120+60+2,2+60+120+1
1513005195,828487ffa8a1bf76c206a0646e40e721,Form,160,3,image,32,_REACTION_TIME_,4477
1513005195,828487ffa8a1bf76c206a0646e40e721,Form,22,3,image,4,1+120+120+0_2+60+120+1_1+60+120+2,1+120+120+0
1513005195,828487ffa8a1bf76c206a0646e40e721,Form,22,3,image,4,_REACTION_TIME_,4094
1513005195,828487ffa8a1bf76c206a0646e40e721,Form,85,3,image,17,2+60+120+0_2+120+120+1_1+120+60+2,2+120+120+1
1513005195,828487ffa8a1bf76c206a0646e40e721,Form,85,3,image,17,_REACTION_TIME_,4251
1513005195,828487ffa8a1bf76c206a0646e40e721,Form,1,0,debrief,NULL,purpose,To see if there were certain pictures that stand out in my mind first%2C depending on the order%2C size or subject.
1513005195,828487ffa8a1bf76c206a0646e40e721,Form,1,0,debrief,NULL,comments,none
1513005195,828487ffa8a1bf76c206a0646e40e721,Form,1,0,debrief,NULL,language,native
1513005195,828487ffa8a1bf76c206a0646e40e721,Form,1,0,debrief,NULL,_REACTION_TIME_,52945
#
# Results on Monday December 11 2017 15:17:53 UTC.
# USER AGENT: Mozilla/5.0 (Windows NT 10.0; Win64; x64) AppleWebKit/537.36 (KHTML, like Gecko) Chrome/62.0.3202.94 Safari/537.36
# Design number was non-random = 66
#
# Columns below this comment are as follows:
# 1. Time results were received.
# 2. MD5 hash of participant's IP address.
# 3. Controller name.
# 4. Item number.
# 5. Element number.
# 6. Type.
# 7. Group.
# 8. Field name.
# 9. Field value.
1513005474,909467358b9a48259fd466a4f7f2ef9f,Form,0,0,intro,NULL,_REACTION_TIME_,90623
1513005474,909467358b9a48259fd466a4f7f2ef9f,Form,174,3,image,35,1+120+120+0_1+60+120+1_2+60+120+2,1+120+120+0
1513005474,909467358b9a48259fd466a4f7f2ef9f,Form,174,3,image,35,_REACTION_TIME_,13234
1513005474,909467358b9a48259fd466a4f7f2ef9f,Form,86,3,image,17,2+120+60+0_1+120+120+1_2+120+120+2,1+120+120+1
1513005474,909467358b9a48259fd466a4f7f2ef9f,Form,86,3,image,17,_REACTION_TIME_,16519
1513005474,909467358b9a48259fd466a4f7f2ef9f,Form,123,3,image,24,2+120+60+0_1+120+120+1_2+120+120+2,2+120+120+2
1513005474,909467358b9a48259fd466a4f7f2ef9f,Form,123,3,image,24,_REACTION_TIME_,7572
1513005474,909467358b9a48259fd466a4f7f2ef9f,Form,111,3,image,22,1+120+120+0_1+120+60+1_1+60+120+2,1+120+120+0
1513005474,909467358b9a48259fd466a4f7f2ef9f,Form,111,3,image,22,_REACTION_TIME_,6003
1513005474,909467358b9a48259fd466a4f7f2ef9f,Form,161,3,image,32,1+120+60+0_2+60+120+1_1+120+120+2,1+120+120+2
1513005474,909467358b9a48259fd466a4f7f2ef9f,Form,161,3,image,32,_REACTION_TIME_,13990
1513005474,909467358b9a48259fd466a4f7f2ef9f,Form,74,3,image,15,2+120+60+0_1+120+120+1_2+120+120+2,1+120+120+1
1513005474,909467358b9a48259fd466a4f7f2ef9f,Form,74,3,image,15,_REACTION_TIME_,5938
1513005474,909467358b9a48259fd466a4f7f2ef9f,Form,173,3,image,34,2+120+120+0_2+60+120+1_1+120+60+2,2+120+120+0
1513005474,909467358b9a48259fd466a4f7f2ef9f,Form,173,3,image,34,_REACTION_TIME_,5025
1513005474,909467358b9a48259fd466a4f7f2ef9f,Form,130,3,image,26,2+60+120+0_1+60+120+1_1+120+120+2,2+60+120+0
1513005474,909467358b9a48259fd466a4f7f2ef9f,Form,130,3,image,26,_REACTION_TIME_,4578
1513005474,909467358b9a48259fd466a4f7f2ef9f,Form,80,3,image,16,2+120+120+0_1+120+120+1_2+60+120+2,2+120+120+0
1513005474,909467358b9a48259fd466a4f7f2ef9f,Form,80,3,image,16,_REACTION_TIME_,12158
1513005474,909467358b9a48259fd466a4f7f2ef9f,Form,61,3,image,12,1+120+60+0_2+60+120+1_1+60+120+2,1+120+60+0
1513005474,909467358b9a48259fd466a4f7f2ef9f,Form,61,3,image,12,_REACTION_TIME_,6900
1513005474,909467358b9a48259fd466a4f7f2ef9f,Form,17,3,image,3,1+120+60+0_2+60+120+1_2+120+120+2,1+120+60+0
1513005474,909467358b9a48259fd466a4f7f2ef9f,Form,17,3,image,3,_REACTION_TIME_,11180
1513005474,909467358b9a48259fd466a4f7f2ef9f,Form,136,3,image,27,1+60+120+0_1+120+120+1_2+60+120+2,2+60+120+2
1513005474,909467358b9a48259fd466a4f7f2ef9f,Form,136,3,image,27,_REACTION_TIME_,8013
1513005474,909467358b9a48259fd466a4f7f2ef9f,Form,48,3,image,9,2+120+60+0_2+60+120+1_1+120+120+2,2+60+120+1
1513005474,909467358b9a48259fd466a4f7f2ef9f,Form,48,3,image,9,_REACTION_TIME_,5343
1513005474,909467358b9a48259fd466a4f7f2ef9f,Form,105,3,image,21,2+60+120+0_1+120+120+1_2+120+60+2,2+60+120+0
1513005474,909467358b9a48259fd466a4f7f2ef9f,Form,105,3,image,21,_REACTION_TIME_,6065
1513005474,909467358b9a48259fd466a4f7f2ef9f,Form,5,3,image,1,2+120+60+0_1+60+120+1_2+60+120+2,2+60+120+2
1513005474,909467358b9a48259fd466a4f7f2ef9f,Form,5,3,image,1,_REACTION_TIME_,5427
1513005474,909467358b9a48259fd466a4f7f2ef9f,Form,124,3,image,25,1+120+60+0_2+120+60+1_2+60+120+2,1+120+60+0
1513005474,909467358b9a48259fd466a4f7f2ef9f,Form,124,3,image,25,_REACTION_TIME_,5759
1513005474,909467358b9a48259fd466a4f7f2ef9f,Form,67,3,image,13,2+120+60+0_1+120+120+1_2+60+120+2,1+120+120+1
1513005474,909467358b9a48259fd466a4f7f2ef9f,Form,67,3,image,13,_REACTION_TIME_,4368
1513005474,909467358b9a48259fd466a4f7f2ef9f,Form,42,3,image,8,2+120+60+0_2+120+120+1_1+60+120+2,1+60+120+2
1513005474,909467358b9a48259fd466a4f7f2ef9f,Form,42,3,image,8,_REACTION_TIME_,7254
1513005474,909467358b9a48259fd466a4f7f2ef9f,Form,167,3,image,33,1+60+120+0_2+120+60+1_2+120+120+2,2+120+120+2
1513005474,909467358b9a48259fd466a4f7f2ef9f,Form,167,3,image,33,_REACTION_TIME_,7817
1513005474,909467358b9a48259fd466a4f7f2ef9f,Form,180,3,image,36,2+120+60+0_2+120+120+1_2+60+120+2,2+120+120+1
1513005474,909467358b9a48259fd466a4f7f2ef9f,Form,180,3,image,36,_REACTION_TIME_,6165
1513005474,909467358b9a48259fd466a4f7f2ef9f,Form,148,3,image,29,1+120+60+0_2+120+60+1_1+120+120+2,2+120+60+1
1513005474,909467358b9a48259fd466a4f7f2ef9f,Form,148,3,image,29,_REACTION_TIME_,6430
1513005474,909467358b9a48259fd466a4f7f2ef9f,Form,23,3,image,4,1+120+60+0_2+60+120+1_2+120+60+2,1+120+60+0
1513005474,909467358b9a48259fd466a4f7f2ef9f,Form,23,3,image,4,_REACTION_TIME_,6331
1513005474,909467358b9a48259fd466a4f7f2ef9f,Form,49,3,image,10,2+60+120+0_1+120+60+1_1+120+120+2,1+120+60+1
1513005474,909467358b9a48259fd466a4f7f2ef9f,Form,49,3,image,10,_REACTION_TIME_,4905
1513005474,909467358b9a48259fd466a4f7f2ef9f,Form,30,3,image,6,1+60+120+0_2+120+60+1_1+120+120+2,1+120+120+2
1513005474,909467358b9a48259fd466a4f7f2ef9f,Form,30,3,image,6,_REACTION_TIME_,36072
1513005474,909467358b9a48259fd466a4f7f2ef9f,Form,155,3,image,31,2+120+120+0_2+120+60+1_2+60+120+2,2+60+120+2
1513005474,909467358b9a48259fd466a4f7f2ef9f,Form,155,3,image,31,_REACTION_TIME_,8356
1513005474,909467358b9a48259fd466a4f7f2ef9f,Form,11,3,image,2,1+60+120+0_2+120+120+1_1+120+120+2,2+120+120+1
1513005474,909467358b9a48259fd466a4f7f2ef9f,Form,11,3,image,2,_REACTION_TIME_,5424
1513005474,909467358b9a48259fd466a4f7f2ef9f,Form,24,3,image,5,1+120+60+0_2+120+120+1_1+60+120+2,2+120+120+1
1513005474,909467358b9a48259fd466a4f7f2ef9f,Form,24,3,image,5,_REACTION_TIME_,6154
1513005474,909467358b9a48259fd466a4f7f2ef9f,Form,36,3,image,7,2+120+120+0_2+60+120+1_1+60+120+2,2+120+120+0
1513005474,909467358b9a48259fd466a4f7f2ef9f,Form,36,3,image,7,_REACTION_TIME_,10722
1513005474,909467358b9a48259fd466a4f7f2ef9f,Form,117,3,image,23,1+60+120+0_2+120+60+1_1+120+60+2,1+60+120+0
1513005474,909467358b9a48259fd466a4f7f2ef9f,Form,117,3,image,23,_REACTION_TIME_,6334
1513005474,909467358b9a48259fd466a4f7f2ef9f,Form,149,3,image,30,2+120+120+0_2+120+60+1_1+120+120+2,1+120+120+2
1513005474,909467358b9a48259fd466a4f7f2ef9f,Form,149,3,image,30,_REACTION_TIME_,8141
1513005474,909467358b9a48259fd466a4f7f2ef9f,Form,73,3,image,14,2+60+120+0_1+120+120+1_1+60+120+2,1+120+120+1
1513005474,909467358b9a48259fd466a4f7f2ef9f,Form,73,3,image,14,_REACTION_TIME_,8591
1513005474,909467358b9a48259fd466a4f7f2ef9f,Form,98,3,image,19,2+60+120+0_2+120+120+1_1+60+120+2,2+120+120+1
1513005474,909467358b9a48259fd466a4f7f2ef9f,Form,98,3,image,19,_REACTION_TIME_,6277
1513005474,909467358b9a48259fd466a4f7f2ef9f,Form,55,3,image,11,1+120+60+0_2+60+120+1_1+120+120+2,2+60+120+1
1513005474,909467358b9a48259fd466a4f7f2ef9f,Form,55,3,image,11,_REACTION_TIME_,5587
1513005474,909467358b9a48259fd466a4f7f2ef9f,Form,92,3,image,18,1+120+120+0_1+120+60+1_1+60+120+2,1+120+60+1
1513005474,909467358b9a48259fd466a4f7f2ef9f,Form,92,3,image,18,_REACTION_TIME_,6180
1513005474,909467358b9a48259fd466a4f7f2ef9f,Form,142,3,image,28,2+120+120+0_2+60+120+1_1+120+60+2,2+120+120+0
1513005474,909467358b9a48259fd466a4f7f2ef9f,Form,142,3,image,28,_REACTION_TIME_,5753
1513005474,909467358b9a48259fd466a4f7f2ef9f,Form,99,3,image,20,1+120+120+0_2+60+120+1_1+120+60+2,1+120+120+0
1513005474,909467358b9a48259fd466a4f7f2ef9f,Form,99,3,image,20,_REACTION_TIME_,8816
1513005474,909467358b9a48259fd466a4f7f2ef9f,Form,1,0,debrief,NULL,purpose,How we differentiate sizes of things? 
1513005474,909467358b9a48259fd466a4f7f2ef9f,Form,1,0,debrief,NULL,comments,thank you for considering my data in your research
1513005474,909467358b9a48259fd466a4f7f2ef9f,Form,1,0,debrief,NULL,language,native
1513005474,909467358b9a48259fd466a4f7f2ef9f,Form,1,0,debrief,NULL,_REACTION_TIME_,68582
#
# Results on Monday December 11 2017 15:38:46 UTC.
# USER AGENT: Mozilla/5.0 (Windows NT 10.0; Win64; x64) AppleWebKit/537.36 (KHTML, like Gecko) Chrome/63.0.3239.84 Safari/537.36
# Design number was non-random = 68
#
# Columns below this comment are as follows:
# 1. Time results were received.
# 2. MD5 hash of participant's IP address.
# 3. Controller name.
# 4. Item number.
# 5. Element number.
# 6. Type.
# 7. Group.
# 8. Field name.
# 9. Field value.
1513006726,7bd1bcd33a43fb0a6a2be8fcf5d32e49,Form,0,0,intro,NULL,_REACTION_TIME_,28767
1513006726,7bd1bcd33a43fb0a6a2be8fcf5d32e49,Form,45,3,image,9,2+120+120+0_2+120+60+1_1+60+120+2,2+120+60+1
1513006726,7bd1bcd33a43fb0a6a2be8fcf5d32e49,Form,45,3,image,9,_REACTION_TIME_,55668
1513006726,7bd1bcd33a43fb0a6a2be8fcf5d32e49,Form,26,3,image,5,2+120+120+0_2+60+120+1_2+120+60+2,2+60+120+1
1513006726,7bd1bcd33a43fb0a6a2be8fcf5d32e49,Form,26,3,image,5,_REACTION_TIME_,5744
1513006726,7bd1bcd33a43fb0a6a2be8fcf5d32e49,Form,64,3,image,13,2+120+120+0_2+120+60+1_2+60+120+2,2+120+60+1
1513006726,7bd1bcd33a43fb0a6a2be8fcf5d32e49,Form,64,3,image,13,_REACTION_TIME_,7223
1513006726,7bd1bcd33a43fb0a6a2be8fcf5d32e49,Form,70,3,image,14,2+60+120+0_2+120+60+1_1+120+60+2,2+120+60+1
1513006726,7bd1bcd33a43fb0a6a2be8fcf5d32e49,Form,70,3,image,14,_REACTION_TIME_,7243
1513006726,7bd1bcd33a43fb0a6a2be8fcf5d32e49,Form,182,3,image,36,1+120+60+0_1+120+120+1_2+120+120+2,1+120+120+1
1513006726,7bd1bcd33a43fb0a6a2be8fcf5d32e49,Form,182,3,image,36,_REACTION_TIME_,4247
1513006726,7bd1bcd33a43fb0a6a2be8fcf5d32e49,Form,151,3,image,30,2+120+120+0_1+120+60+1_1+120+120+2,2+120+120+0
1513006726,7bd1bcd33a43fb0a6a2be8fcf5d32e49,Form,151,3,image,30,_REACTION_TIME_,5875
1513006726,7bd1bcd33a43fb0a6a2be8fcf5d32e49,Form,164,3,image,33,1+120+120+0_1+60+120+1_2+120+60+2,1+120+120+0
1513006726,7bd1bcd33a43fb0a6a2be8fcf5d32e49,Form,164,3,image,33,_REACTION_TIME_,2932
1513006726,7bd1bcd33a43fb0a6a2be8fcf5d32e49,Form,13,3,image,2,2+60+120+0_1+60+120+1_2+120+120+2,2+120+120+2
1513006726,7bd1bcd33a43fb0a6a2be8fcf5d32e49,Form,13,3,image,2,_REACTION_TIME_,3646
1513006726,7bd1bcd33a43fb0a6a2be8fcf5d32e49,Form,170,3,image,34,2+60+120+0_2+120+60+1_2+120+120+2,2+120+120+2
1513006726,7bd1bcd33a43fb0a6a2be8fcf5d32e49,Form,170,3,image,34,_REACTION_TIME_,4623
1513006726,7bd1bcd33a43fb0a6a2be8fcf5d32e49,Form,57,3,image,11,1+60+120+0_1+120+60+1_2+120+60+2,1+120+60+1
1513006726,7bd1bcd33a43fb0a6a2be8fcf5d32e49,Form,57,3,image,11,_REACTION_TIME_,7766
1513006726,7bd1bcd33a43fb0a6a2be8fcf5d32e49,Form,163,3,image,32,2+60+120+0_1+60+120+1_2+120+120+2,2+60+120+0
1513006726,7bd1bcd33a43fb0a6a2be8fcf5d32e49,Form,163,3,image,32,_REACTION_TIME_,3558
1513006726,7bd1bcd33a43fb0a6a2be8fcf5d32e49,Form,101,3,image,20,2+120+60+0_1+120+60+1_1+60+120+2,1+120+60+1
1513006726,7bd1bcd33a43fb0a6a2be8fcf5d32e49,Form,101,3,image,20,_REACTION_TIME_,2565
1513006726,7bd1bcd33a43fb0a6a2be8fcf5d32e49,Form,20,3,image,4,2+120+120+0_1+120+60+1_2+120+60+2,2+120+120+0
1513006726,7bd1bcd33a43fb0a6a2be8fcf5d32e49,Form,20,3,image,4,_REACTION_TIME_,3169
1513006726,7bd1bcd33a43fb0a6a2be8fcf5d32e49,Form,132,3,image,26,2+60+120+0_2+120+120+1_1+120+120+2,1+120+120+2
1513006726,7bd1bcd33a43fb0a6a2be8fcf5d32e49,Form,132,3,image,26,_REACTION_TIME_,3324
1513006726,7bd1bcd33a43fb0a6a2be8fcf5d32e49,Form,95,3,image,19,2+120+60+0_2+60+120+1_1+120+60+2,2+60+120+1
1513006726,7bd1bcd33a43fb0a6a2be8fcf5d32e49,Form,95,3,image,19,_REACTION_TIME_,3346
1513006726,7bd1bcd33a43fb0a6a2be8fcf5d32e49,Form,39,3,image,8,1+120+60+0_1+120+120+1_2+60+120+2,1+120+60+0
1513006726,7bd1bcd33a43fb0a6a2be8fcf5d32e49,Form,39,3,image,8,_REACTION_TIME_,5348
1513006726,7bd1bcd33a43fb0a6a2be8fcf5d32e49,Form,139,3,image,28,2+120+60+0_2+120+120+1_1+120+60+2,2+120+120+1
1513006726,7bd1bcd33a43fb0a6a2be8fcf5d32e49,Form,139,3,image,28,_REACTION_TIME_,3351
1513006726,7bd1bcd33a43fb0a6a2be8fcf5d32e49,Form,32,3,image,6,2+120+60+0_1+60+120+1_2+120+120+2,1+60+120+1
1513006726,7bd1bcd33a43fb0a6a2be8fcf5d32e49,Form,32,3,image,6,_REACTION_TIME_,7383
1513006726,7bd1bcd33a43fb0a6a2be8fcf5d32e49,Form,38,3,image,7,2+120+120+0_1+120+120+1_1+60+120+2,2+120+120+0
1513006726,7bd1bcd33a43fb0a6a2be8fcf5d32e49,Form,38,3,image,7,_REACTION_TIME_,3415
1513006726,7bd1bcd33a43fb0a6a2be8fcf5d32e49,Form,176,3,image,35,2+120+60+0_1+120+60+1_1+60+120+2,1+120+60+1
1513006726,7bd1bcd33a43fb0a6a2be8fcf5d32e49,Form,176,3,image,35,_REACTION_TIME_,2884
1513006726,7bd1bcd33a43fb0a6a2be8fcf5d32e49,Form,51,3,image,10,1+60+120+0_1+120+120+1_2+120+60+2,2+120+60+2
1513006726,7bd1bcd33a43fb0a6a2be8fcf5d32e49,Form,51,3,image,10,_REACTION_TIME_,2168
1513006726,7bd1bcd33a43fb0a6a2be8fcf5d32e49,Form,157,3,image,31,2+120+60+0_2+60+120+1_1+60+120+2,1+60+120+2
1513006726,7bd1bcd33a43fb0a6a2be8fcf5d32e49,Form,157,3,image,31,_REACTION_TIME_,3353
1513006726,7bd1bcd33a43fb0a6a2be8fcf5d32e49,Form,107,3,image,21,1+60+120+0_1+120+60+1_2+60+120+2,1+120+60+1
1513006726,7bd1bcd33a43fb0a6a2be8fcf5d32e49,Form,107,3,image,21,_REACTION_TIME_,2108
1513006726,7bd1bcd33a43fb0a6a2be8fcf5d32e49,Form,88,3,image,17,2+120+60+0_1+120+60+1_2+60+120+2,1+120+60+1
1513006726,7bd1bcd33a43fb0a6a2be8fcf5d32e49,Form,88,3,image,17,_REACTION_TIME_,5912
1513006726,7bd1bcd33a43fb0a6a2be8fcf5d32e49,Form,7,3,image,1,2+120+120+0_1+120+120+1_1+120+60+2,1+120+120+1
1513006726,7bd1bcd33a43fb0a6a2be8fcf5d32e49,Form,7,3,image,1,_REACTION_TIME_,2549
1513006726,7bd1bcd33a43fb0a6a2be8fcf5d32e49,Form,14,3,image,3,2+120+60+0_2+60+120+1_1+120+120+2,1+120+120+2
1513006726,7bd1bcd33a43fb0a6a2be8fcf5d32e49,Form,14,3,image,3,_REACTION_TIME_,2849
1513006726,7bd1bcd33a43fb0a6a2be8fcf5d32e49,Form,126,3,image,25,1+60+120+0_1+120+60+1_2+120+60+2,2+120+60+2
1513006726,7bd1bcd33a43fb0a6a2be8fcf5d32e49,Form,126,3,image,25,_REACTION_TIME_,2474
1513006726,7bd1bcd33a43fb0a6a2be8fcf5d32e49,Form,145,3,image,29,1+60+120+0_2+120+120+1_1+120+120+2,2+120+120+1
1513006726,7bd1bcd33a43fb0a6a2be8fcf5d32e49,Form,145,3,image,29,_REACTION_TIME_,2498
1513006726,7bd1bcd33a43fb0a6a2be8fcf5d32e49,Form,138,3,image,27,2+120+120+0_1+120+60+1_1+60+120+2,2+120+120+0
1513006726,7bd1bcd33a43fb0a6a2be8fcf5d32e49,Form,138,3,image,27,_REACTION_TIME_,2624
1513006726,7bd1bcd33a43fb0a6a2be8fcf5d32e49,Form,63,3,image,12,2+120+60+0_1+60+120+1_1+120+120+2,2+120+60+0
1513006726,7bd1bcd33a43fb0a6a2be8fcf5d32e49,Form,63,3,image,12,_REACTION_TIME_,3983
1513006726,7bd1bcd33a43fb0a6a2be8fcf5d32e49,Form,89,3,image,18,2+120+60+0_1+60+120+1_2+60+120+2,1+60+120+1
1513006726,7bd1bcd33a43fb0a6a2be8fcf5d32e49,Form,89,3,image,18,_REACTION_TIME_,2775
1513006726,7bd1bcd33a43fb0a6a2be8fcf5d32e49,Form,82,3,image,16,1+60+120+0_1+120+120+1_2+120+120+2,1+120+120+1
1513006726,7bd1bcd33a43fb0a6a2be8fcf5d32e49,Form,82,3,image,16,_REACTION_TIME_,5586
1513006726,7bd1bcd33a43fb0a6a2be8fcf5d32e49,Form,120,3,image,24,2+120+120+0_2+60+120+1_1+120+60+2,2+60+120+1
1513006726,7bd1bcd33a43fb0a6a2be8fcf5d32e49,Form,120,3,image,24,_REACTION_TIME_,2366
1513006726,7bd1bcd33a43fb0a6a2be8fcf5d32e49,Form,76,3,image,15,2+60+120+0_1+120+120+1_2+120+120+2,1+120+120+1
1513006726,7bd1bcd33a43fb0a6a2be8fcf5d32e49,Form,76,3,image,15,_REACTION_TIME_,2212
1513006726,7bd1bcd33a43fb0a6a2be8fcf5d32e49,Form,113,3,image,22,1+120+120+0_2+120+120+1_2+120+60+2,2+120+120+1
1513006726,7bd1bcd33a43fb0a6a2be8fcf5d32e49,Form,113,3,image,22,_REACTION_TIME_,2298
1513006726,7bd1bcd33a43fb0a6a2be8fcf5d32e49,Form,114,3,image,23,2+120+60+0_2+60+120+1_1+120+60+2,1+120+60+2
1513006726,7bd1bcd33a43fb0a6a2be8fcf5d32e49,Form,114,3,image,23,_REACTION_TIME_,3098
1513006726,7bd1bcd33a43fb0a6a2be8fcf5d32e49,Form,1,0,debrief,NULL,purpose,To see if people have any kind of order to what they are picking.
1513006726,7bd1bcd33a43fb0a6a2be8fcf5d32e49,Form,1,0,debrief,NULL,comments,Thank you.
1513006726,7bd1bcd33a43fb0a6a2be8fcf5d32e49,Form,1,0,debrief,NULL,language,native
1513006726,7bd1bcd33a43fb0a6a2be8fcf5d32e49,Form,1,0,debrief,NULL,_REACTION_TIME_,45042
#
# Results on Monday December 11 2017 15:43:26 UTC.
# USER AGENT: Mozilla/5.0 (Macintosh; Intel Mac OS X 10_11_6) AppleWebKit/537.36 (KHTML, like Gecko) Chrome/62.0.3202.94 Safari/537.36
# Design number was non-random = 69
#
# Columns below this comment are as follows:
# 1. Time results were received.
# 2. MD5 hash of participant's IP address.
# 3. Controller name.
# 4. Item number.
# 5. Element number.
# 6. Type.
# 7. Group.
# 8. Field name.
# 9. Field value.
1513007007,c05ae2abbf0b7e0749cc5fb008fc4488,Form,0,0,intro,NULL,_REACTION_TIME_,210824
1513007007,c05ae2abbf0b7e0749cc5fb008fc4488,Form,134,3,image,27,2+120+60+0_2+60+120+1_2+120+120+2,2+120+60+0
1513007007,c05ae2abbf0b7e0749cc5fb008fc4488,Form,134,3,image,27,_REACTION_TIME_,8186
1513007007,c05ae2abbf0b7e0749cc5fb008fc4488,Form,133,3,image,26,1+120+60+0_2+60+120+1_1+60+120+2,2+60+120+1
1513007007,c05ae2abbf0b7e0749cc5fb008fc4488,Form,133,3,image,26,_REACTION_TIME_,22433
1513007007,c05ae2abbf0b7e0749cc5fb008fc4488,Form,65,3,image,13,2+120+60+0_2+120+120+1_2+60+120+2,2+120+120+1
1513007007,c05ae2abbf0b7e0749cc5fb008fc4488,Form,65,3,image,13,_REACTION_TIME_,3416
1513007007,c05ae2abbf0b7e0749cc5fb008fc4488,Form,152,3,image,30,1+60+120+0_1+120+120+1_2+60+120+2,1+120+120+1
1513007007,c05ae2abbf0b7e0749cc5fb008fc4488,Form,152,3,image,30,_REACTION_TIME_,3083
1513007007,c05ae2abbf0b7e0749cc5fb008fc4488,Form,90,3,image,18,2+120+60+0_2+60+120+1_1+120+60+2,2+60+120+1
1513007007,c05ae2abbf0b7e0749cc5fb008fc4488,Form,90,3,image,18,_REACTION_TIME_,7717
1513007007,c05ae2abbf0b7e0749cc5fb008fc4488,Form,34,3,image,7,1+120+120+0_2+120+120+1_1+60+120+2,1+120+120+0
1513007007,c05ae2abbf0b7e0749cc5fb008fc4488,Form,34,3,image,7,_REACTION_TIME_,6392
1513007007,c05ae2abbf0b7e0749cc5fb008fc4488,Form,171,3,image,34,2+60+120+0_1+120+60+1_1+120+120+2,1+120+120+2
1513007007,c05ae2abbf0b7e0749cc5fb008fc4488,Form,171,3,image,34,_REACTION_TIME_,3061
1513007007,c05ae2abbf0b7e0749cc5fb008fc4488,Form,27,3,image,5,2+60+120+0_1+60+120+1_2+120+60+2,1+60+120+1
1513007007,c05ae2abbf0b7e0749cc5fb008fc4488,Form,27,3,image,5,_REACTION_TIME_,2901
1513007007,c05ae2abbf0b7e0749cc5fb008fc4488,Form,121,3,image,24,1+120+120+0_1+60+120+1_1+120+60+2,1+120+120+0
1513007007,c05ae2abbf0b7e0749cc5fb008fc4488,Form,121,3,image,24,_REACTION_TIME_,2704
1513007007,c05ae2abbf0b7e0749cc5fb008fc4488,Form,102,3,image,20,1+60+120+0_1+120+60+1_2+60+120+2,1+120+60+1
1513007007,c05ae2abbf0b7e0749cc5fb008fc4488,Form,102,3,image,20,_REACTION_TIME_,4365
1513007007,c05ae2abbf0b7e0749cc5fb008fc4488,Form,71,3,image,14,1+120+60+0_2+120+120+1_1+60+120+2,1+120+60+0
1513007007,c05ae2abbf0b7e0749cc5fb008fc4488,Form,71,3,image,14,_REACTION_TIME_,3347
1513007007,c05ae2abbf0b7e0749cc5fb008fc4488,Form,52,3,image,10,1+60+120+0_1+120+60+1_1+120+120+2,1+120+60+1
1513007007,c05ae2abbf0b7e0749cc5fb008fc4488,Form,52,3,image,10,_REACTION_TIME_,3380
1513007007,c05ae2abbf0b7e0749cc5fb008fc4488,Form,59,3,image,12,2+120+60+0_1+120+60+1_2+120+120+2,1+120+60+1
1513007007,c05ae2abbf0b7e0749cc5fb008fc4488,Form,59,3,image,12,_REACTION_TIME_,4399
1513007007,c05ae2abbf0b7e0749cc5fb008fc4488,Form,84,3,image,17,2+120+60+0_2+120+120+1_1+60+120+2,1+60+120+2
1513007007,c05ae2abbf0b7e0749cc5fb008fc4488,Form,84,3,image,17,_REACTION_TIME_,2822
1513007007,c05ae2abbf0b7e0749cc5fb008fc4488,Form,108,3,image,21,1+60+120+0_1+120+60+1_2+120+60+2,2+120+60+2
1513007007,c05ae2abbf0b7e0749cc5fb008fc4488,Form,108,3,image,21,_REACTION_TIME_,5237
1513007007,c05ae2abbf0b7e0749cc5fb008fc4488,Form,158,3,image,31,2+60+120+0_2+120+120+1_1+120+120+2,2+120+120+1
1513007007,c05ae2abbf0b7e0749cc5fb008fc4488,Form,158,3,image,31,_REACTION_TIME_,3514
1513007007,c05ae2abbf0b7e0749cc5fb008fc4488,Form,40,3,image,8,1+60+120+0_2+120+120+1_2+60+120+2,2+120+120+1
1513007007,c05ae2abbf0b7e0749cc5fb008fc4488,Form,40,3,image,8,_REACTION_TIME_,2870
1513007007,c05ae2abbf0b7e0749cc5fb008fc4488,Form,183,3,image,36,2+60+120+0_1+120+60+1_2+120+60+2,2+60+120+0
1513007007,c05ae2abbf0b7e0749cc5fb008fc4488,Form,183,3,image,36,_REACTION_TIME_,7301
1513007007,c05ae2abbf0b7e0749cc5fb008fc4488,Form,46,3,image,9,1+120+120+0_1+120+60+1_2+120+60+2,1+120+120+0
1513007007,c05ae2abbf0b7e0749cc5fb008fc4488,Form,46,3,image,9,_REACTION_TIME_,4010
1513007007,c05ae2abbf0b7e0749cc5fb008fc4488,Form,177,3,image,35,2+120+60+0_1+60+120+1_1+120+60+2,1+120+60+2
1513007007,c05ae2abbf0b7e0749cc5fb008fc4488,Form,177,3,image,35,_REACTION_TIME_,4511
1513007007,c05ae2abbf0b7e0749cc5fb008fc4488,Form,140,3,image,28,1+60+120+0_2+120+60+1_1+120+120+2,2+120+60+1
1513007007,c05ae2abbf0b7e0749cc5fb008fc4488,Form,140,3,image,28,_REACTION_TIME_,2738
1513007007,c05ae2abbf0b7e0749cc5fb008fc4488,Form,9,3,image,2,2+120+120+0_1+120+60+1_1+60+120+2,1+120+60+1
1513007007,c05ae2abbf0b7e0749cc5fb008fc4488,Form,9,3,image,2,_REACTION_TIME_,3890
1513007007,c05ae2abbf0b7e0749cc5fb008fc4488,Form,115,3,image,23,2+60+120+0_1+60+120+1_2+120+120+2,2+60+120+0
1513007007,c05ae2abbf0b7e0749cc5fb008fc4488,Form,115,3,image,23,_REACTION_TIME_,2884
1513007007,c05ae2abbf0b7e0749cc5fb008fc4488,Form,21,3,image,4,1+120+60+0_2+120+120+1_2+120+60+2,2+120+120+1
1513007007,c05ae2abbf0b7e0749cc5fb008fc4488,Form,21,3,image,4,_REACTION_TIME_,3607
1513007007,c05ae2abbf0b7e0749cc5fb008fc4488,Form,165,3,image,33,2+120+120+0_1+120+60+1_1+120+120+2,2+120+120+0
1513007007,c05ae2abbf0b7e0749cc5fb008fc4488,Form,165,3,image,33,_REACTION_TIME_,15711
1513007007,c05ae2abbf0b7e0749cc5fb008fc4488,Form,33,3,image,6,1+120+60+0_2+120+60+1_2+60+120+2,2+120+60+1
1513007007,c05ae2abbf0b7e0749cc5fb008fc4488,Form,33,3,image,6,_REACTION_TIME_,3254
1513007007,c05ae2abbf0b7e0749cc5fb008fc4488,Form,8,3,image,1,1+120+120+0_2+120+60+1_2+60+120+2,2+60+120+2
1513007007,c05ae2abbf0b7e0749cc5fb008fc4488,Form,8,3,image,1,_REACTION_TIME_,4237
1513007007,c05ae2abbf0b7e0749cc5fb008fc4488,Form,127,3,image,25,1+60+120+0_1+120+60+1_2+120+60+2,1+120+60+1
1513007007,c05ae2abbf0b7e0749cc5fb008fc4488,Form,127,3,image,25,_REACTION_TIME_,59730
1513007007,c05ae2abbf0b7e0749cc5fb008fc4488,Form,83,3,image,16,2+120+120+0_1+120+120+1_2+60+120+2,2+120+120+0
1513007007,c05ae2abbf0b7e0749cc5fb008fc4488,Form,83,3,image,16,_REACTION_TIME_,4665
1513007007,c05ae2abbf0b7e0749cc5fb008fc4488,Form,146,3,image,29,1+60+120+0_2+120+120+1_1+120+60+2,2+120+120+1
1513007007,c05ae2abbf0b7e0749cc5fb008fc4488,Form,146,3,image,29,_REACTION_TIME_,5381
1513007007,c05ae2abbf0b7e0749cc5fb008fc4488,Form,109,3,image,22,1+120+120+0_1+120+60+1_1+60+120+2,1+120+120+0
1513007007,c05ae2abbf0b7e0749cc5fb008fc4488,Form,109,3,image,22,_REACTION_TIME_,2240
1513007007,c05ae2abbf0b7e0749cc5fb008fc4488,Form,77,3,image,15,2+120+60+0_2+120+120+1_1+60+120+2,1+60+120+2
1513007007,c05ae2abbf0b7e0749cc5fb008fc4488,Form,77,3,image,15,_REACTION_TIME_,2774
1513007007,c05ae2abbf0b7e0749cc5fb008fc4488,Form,159,3,image,32,2+60+120+0_1+120+120+1_2+120+120+2,1+120+120+1
1513007007,c05ae2abbf0b7e0749cc5fb008fc4488,Form,159,3,image,32,_REACTION_TIME_,2244
1513007007,c05ae2abbf0b7e0749cc5fb008fc4488,Form,96,3,image,19,1+120+60+0_1+120+120+1_2+60+120+2,1+120+60+0
1513007007,c05ae2abbf0b7e0749cc5fb008fc4488,Form,96,3,image,19,_REACTION_TIME_,3397
1513007007,c05ae2abbf0b7e0749cc5fb008fc4488,Form,15,3,image,3,1+120+120+0_1+120+60+1_2+60+120+2,1+120+120+0
1513007007,c05ae2abbf0b7e0749cc5fb008fc4488,Form,15,3,image,3,_REACTION_TIME_,4416
1513007007,c05ae2abbf0b7e0749cc5fb008fc4488,Form,58,3,image,11,2+120+120+0_1+120+60+1_1+60+120+2,2+120+120+0
1513007007,c05ae2abbf0b7e0749cc5fb008fc4488,Form,58,3,image,11,_REACTION_TIME_,27200
1513007007,c05ae2abbf0b7e0749cc5fb008fc4488,Form,1,0,debrief,NULL,purpose,I'm not sure
1513007007,c05ae2abbf0b7e0749cc5fb008fc4488,Form,1,0,debrief,NULL,comments,
1513007007,c05ae2abbf0b7e0749cc5fb008fc4488,Form,1,0,debrief,NULL,language,native
1513007007,c05ae2abbf0b7e0749cc5fb008fc4488,Form,1,0,debrief,NULL,_REACTION_TIME_,5631
#
# Results on Monday December 11 2017 16:26:50 UTC.
# USER AGENT: Mozilla/5.0 (Windows NT 10.0; Win64; x64) AppleWebKit/537.36 (KHTML, like Gecko) Chrome/62.0.3202.94 Safari/537.36
# Design number was non-random = 70
#
# Columns below this comment are as follows:
# 1. Time results were received.
# 2. MD5 hash of participant's IP address.
# 3. Controller name.
# 4. Item number.
# 5. Element number.
# 6. Type.
# 7. Group.
# 8. Field name.
# 9. Field value.
1513009610,c0866641fe0e77c6da1fc5688dbcd8fc,Form,0,0,intro,NULL,_REACTION_TIME_,21781
1513009610,c0866641fe0e77c6da1fc5688dbcd8fc,Form,166,3,image,33,2+60+120+0_2+120+60+1_1+60+120+2,1+60+120+2
1513009610,c0866641fe0e77c6da1fc5688dbcd8fc,Form,166,3,image,33,_REACTION_TIME_,6742
1513009610,c0866641fe0e77c6da1fc5688dbcd8fc,Form,147,3,image,29,1+120+120+0_2+120+120+1_2+60+120+2,1+120+120+0
1513009610,c0866641fe0e77c6da1fc5688dbcd8fc,Form,147,3,image,29,_REACTION_TIME_,7094
1513009610,c0866641fe0e77c6da1fc5688dbcd8fc,Form,128,3,image,25,1+120+60+0_2+120+60+1_1+60+120+2,2+120+60+1
1513009610,c0866641fe0e77c6da1fc5688dbcd8fc,Form,128,3,image,25,_REACTION_TIME_,5653
1513009610,c0866641fe0e77c6da1fc5688dbcd8fc,Form,29,3,image,6,2+60+120+0_2+120+60+1_2+120+120+2,2+120+60+1
1513009610,c0866641fe0e77c6da1fc5688dbcd8fc,Form,29,3,image,6,_REACTION_TIME_,11275
1513009610,c0866641fe0e77c6da1fc5688dbcd8fc,Form,53,3,image,10,2+120+60+0_2+60+120+1_2+120+120+2,2+120+120+2
1513009610,c0866641fe0e77c6da1fc5688dbcd8fc,Form,53,3,image,10,_REACTION_TIME_,5908
1513009610,c0866641fe0e77c6da1fc5688dbcd8fc,Form,85,3,image,17,2+120+120+0_1+120+60+1_2+120+60+2,2+120+120+0
1513009610,c0866641fe0e77c6da1fc5688dbcd8fc,Form,85,3,image,17,_REACTION_TIME_,9160
1513009610,c0866641fe0e77c6da1fc5688dbcd8fc,Form,103,3,image,20,1+60+120+0_2+120+60+1_1+120+120+2,2+120+60+1
1513009610,c0866641fe0e77c6da1fc5688dbcd8fc,Form,103,3,image,20,_REACTION_TIME_,12540
1513009610,c0866641fe0e77c6da1fc5688dbcd8fc,Form,135,3,image,27,2+120+120+0_1+120+60+1_1+120+120+2,2+120+120+0
1513009610,c0866641fe0e77c6da1fc5688dbcd8fc,Form,135,3,image,27,_REACTION_TIME_,5421
1513009610,c0866641fe0e77c6da1fc5688dbcd8fc,Form,154,3,image,31,1+120+60+0_1+120+120+1_2+120+120+2,1+120+120+1
1513009610,c0866641fe0e77c6da1fc5688dbcd8fc,Form,154,3,image,31,_REACTION_TIME_,11190
1513009610,c0866641fe0e77c6da1fc5688dbcd8fc,Form,160,3,image,32,1+60+120+0_2+120+60+1_2+120+120+2,2+120+120+2
1513009610,c0866641fe0e77c6da1fc5688dbcd8fc,Form,160,3,image,32,_REACTION_TIME_,4980
1513009610,c0866641fe0e77c6da1fc5688dbcd8fc,Form,179,3,image,36,1+120+60+0_1+120+120+1_2+120+120+2,1+120+120+1
1513009610,c0866641fe0e77c6da1fc5688dbcd8fc,Form,179,3,image,36,_REACTION_TIME_,7868
1513009610,c0866641fe0e77c6da1fc5688dbcd8fc,Form,91,3,image,18,1+120+120+0_2+60+120+1_2+120+120+2,2+120+120+2
1513009610,c0866641fe0e77c6da1fc5688dbcd8fc,Form,91,3,image,18,_REACTION_TIME_,4853
1513009610,c0866641fe0e77c6da1fc5688dbcd8fc,Form,41,3,image,8,1+120+120+0_2+60+120+1_1+60+120+2,1+120+120+0
1513009610,c0866641fe0e77c6da1fc5688dbcd8fc,Form,41,3,image,8,_REACTION_TIME_,6482
1513009610,c0866641fe0e77c6da1fc5688dbcd8fc,Form,78,3,image,15,2+120+60+0_1+120+60+1_1+120+120+2,2+120+60+0
1513009610,c0866641fe0e77c6da1fc5688dbcd8fc,Form,78,3,image,15,_REACTION_TIME_,10043
1513009610,c0866641fe0e77c6da1fc5688dbcd8fc,Form,178,3,image,35,1+120+120+0_2+60+120+1_1+120+60+2,2+60+120+1
1513009610,c0866641fe0e77c6da1fc5688dbcd8fc,Form,178,3,image,35,_REACTION_TIME_,7283
1513009610,c0866641fe0e77c6da1fc5688dbcd8fc,Form,97,3,image,19,2+120+120+0_1+120+120+1_1+120+60+2,1+120+120+1
1513009610,c0866641fe0e77c6da1fc5688dbcd8fc,Form,97,3,image,19,_REACTION_TIME_,8003
1513009610,c0866641fe0e77c6da1fc5688dbcd8fc,Form,60,3,image,12,1+120+120+0_1+120+60+1_2+120+60+2,2+120+60+2
1513009610,c0866641fe0e77c6da1fc5688dbcd8fc,Form,60,3,image,12,_REACTION_TIME_,6203
1513009610,c0866641fe0e77c6da1fc5688dbcd8fc,Form,22,3,image,4,1+60+120+0_1+120+60+1_2+60+120+2,1+120+60+1
1513009610,c0866641fe0e77c6da1fc5688dbcd8fc,Form,22,3,image,4,_REACTION_TIME_,7786
1513009610,c0866641fe0e77c6da1fc5688dbcd8fc,Form,35,3,image,7,2+60+120+0_1+120+60+1_1+120+120+2,2+60+120+0
1513009610,c0866641fe0e77c6da1fc5688dbcd8fc,Form,35,3,image,7,_REACTION_TIME_,5985
1513009610,c0866641fe0e77c6da1fc5688dbcd8fc,Form,54,3,image,11,1+60+120+0_1+120+60+1_2+120+60+2,1+60+120+0
1513009610,c0866641fe0e77c6da1fc5688dbcd8fc,Form,54,3,image,11,_REACTION_TIME_,13202
1513009610,c0866641fe0e77c6da1fc5688dbcd8fc,Form,72,3,image,14,1+120+60+0_1+120+120+1_1+60+120+2,1+120+120+1
1513009610,c0866641fe0e77c6da1fc5688dbcd8fc,Form,72,3,image,14,_REACTION_TIME_,10060
1513009610,c0866641fe0e77c6da1fc5688dbcd8fc,Form,16,3,image,3,1+60+120+0_2+120+120+1_2+60+120+2,1+60+120+0
1513009610,c0866641fe0e77c6da1fc5688dbcd8fc,Form,16,3,image,3,_REACTION_TIME_,3674
1513009610,c0866641fe0e77c6da1fc5688dbcd8fc,Form,141,3,image,28,1+120+120+0_2+120+60+1_1+120+60+2,1+120+120+0
1513009610,c0866641fe0e77c6da1fc5688dbcd8fc,Form,141,3,image,28,_REACTION_TIME_,4051
1513009610,c0866641fe0e77c6da1fc5688dbcd8fc,Form,110,3,image,22,2+120+60+0_2+120+120+1_2+60+120+2,2+120+120+1
1513009610,c0866641fe0e77c6da1fc5688dbcd8fc,Form,110,3,image,22,_REACTION_TIME_,6549
1513009610,c0866641fe0e77c6da1fc5688dbcd8fc,Form,129,3,image,26,2+60+120+0_2+120+120+1_2+120+60+2,2+60+120+0
1513009610,c0866641fe0e77c6da1fc5688dbcd8fc,Form,129,3,image,26,_REACTION_TIME_,8407
1513009610,c0866641fe0e77c6da1fc5688dbcd8fc,Form,4,3,image,1,2+120+120+0_2+120+60+1_2+60+120+2,2+120+120+0
1513009610,c0866641fe0e77c6da1fc5688dbcd8fc,Form,4,3,image,1,_REACTION_TIME_,8081
1513009610,c0866641fe0e77c6da1fc5688dbcd8fc,Form,104,3,image,21,1+120+60+0_2+120+60+1_2+120+120+2,1+120+60+0
1513009610,c0866641fe0e77c6da1fc5688dbcd8fc,Form,104,3,image,21,_REACTION_TIME_,7011
1513009610,c0866641fe0e77c6da1fc5688dbcd8fc,Form,79,3,image,16,2+120+60+0_1+120+60+1_2+60+120+2,1+120+60+1
1513009610,c0866641fe0e77c6da1fc5688dbcd8fc,Form,79,3,image,16,_REACTION_TIME_,6162
1513009610,c0866641fe0e77c6da1fc5688dbcd8fc,Form,116,3,image,23,1+120+120+0_2+120+60+1_1+120+60+2,1+120+120+0
1513009610,c0866641fe0e77c6da1fc5688dbcd8fc,Form,116,3,image,23,_REACTION_TIME_,2850
1513009610,c0866641fe0e77c6da1fc5688dbcd8fc,Form,66,3,image,13,1+120+60+0_2+120+120+1_1+120+120+2,2+120+120+1
1513009610,c0866641fe0e77c6da1fc5688dbcd8fc,Form,66,3,image,13,_REACTION_TIME_,6047
1513009610,c0866641fe0e77c6da1fc5688dbcd8fc,Form,47,3,image,9,1+120+60+0_2+120+120+1_2+120+60+2,1+120+60+0
1513009610,c0866641fe0e77c6da1fc5688dbcd8fc,Form,47,3,image,9,_REACTION_TIME_,8510
1513009610,c0866641fe0e77c6da1fc5688dbcd8fc,Form,28,3,image,5,1+120+60+0_2+60+120+1_1+60+120+2,1+120+60+0
1513009610,c0866641fe0e77c6da1fc5688dbcd8fc,Form,28,3,image,5,_REACTION_TIME_,6342
1513009610,c0866641fe0e77c6da1fc5688dbcd8fc,Form,172,3,image,34,1+120+120+0_1+60+120+1_1+120+60+2,1+120+60+2
1513009610,c0866641fe0e77c6da1fc5688dbcd8fc,Form,172,3,image,34,_REACTION_TIME_,13531
1513009610,c0866641fe0e77c6da1fc5688dbcd8fc,Form,153,3,image,30,2+60+120+0_1+120+60+1_1+60+120+2,2+60+120+0
1513009610,c0866641fe0e77c6da1fc5688dbcd8fc,Form,153,3,image,30,_REACTION_TIME_,6412
1513009610,c0866641fe0e77c6da1fc5688dbcd8fc,Form,10,3,image,2,2+60+120+0_2+120+120+1_1+120+60+2,2+120+120+1
1513009610,c0866641fe0e77c6da1fc5688dbcd8fc,Form,10,3,image,2,_REACTION_TIME_,4875
1513009610,c0866641fe0e77c6da1fc5688dbcd8fc,Form,122,3,image,24,2+120+120+0_2+120+60+1_2+60+120+2,2+120+60+1
1513009610,c0866641fe0e77c6da1fc5688dbcd8fc,Form,122,3,image,24,_REACTION_TIME_,8705
1513009610,c0866641fe0e77c6da1fc5688dbcd8fc,Form,1,0,debrief,NULL,purpose,How people order words when describing things
1513009610,c0866641fe0e77c6da1fc5688dbcd8fc,Form,1,0,debrief,NULL,comments,none
1513009610,c0866641fe0e77c6da1fc5688dbcd8fc,Form,1,0,debrief,NULL,language,native
1513009610,c0866641fe0e77c6da1fc5688dbcd8fc,Form,1,0,debrief,NULL,_REACTION_TIME_,29381
#
# Results on Monday December 11 2017 16:28:35 UTC.
# USER AGENT: Mozilla/5.0 (Windows NT 6.1; Win64; x64) AppleWebKit/537.36 (KHTML, like Gecko) Chrome/63.0.3239.84 Safari/537.36
# Design number was non-random = 71
#
# Columns below this comment are as follows:
# 1. Time results were received.
# 2. MD5 hash of participant's IP address.
# 3. Controller name.
# 4. Item number.
# 5. Element number.
# 6. Type.
# 7. Group.
# 8. Field name.
# 9. Field value.
1513009715,8ddea2e0d49037bb954860281f8f34b1,Form,0,0,intro,NULL,_REACTION_TIME_,31059
1513009715,8ddea2e0d49037bb954860281f8f34b1,Form,11,3,image,2,1+120+120+0_1+60+120+1_2+60+120+2,1+120+120+0
1513009715,8ddea2e0d49037bb954860281f8f34b1,Form,11,3,image,2,_REACTION_TIME_,5898
1513009715,8ddea2e0d49037bb954860281f8f34b1,Form,55,3,image,11,1+60+120+0_2+120+120+1_1+120+60+2,2+120+120+1
1513009715,8ddea2e0d49037bb954860281f8f34b1,Form,55,3,image,11,_REACTION_TIME_,3916
1513009715,8ddea2e0d49037bb954860281f8f34b1,Form,174,3,image,35,1+120+120+0_1+60+120+1_2+120+60+2,1+120+120+0
1513009715,8ddea2e0d49037bb954860281f8f34b1,Form,174,3,image,35,_REACTION_TIME_,5666
1513009715,8ddea2e0d49037bb954860281f8f34b1,Form,74,3,image,15,1+120+120+0_2+120+120+1_2+60+120+2,2+120+120+1
1513009715,8ddea2e0d49037bb954860281f8f34b1,Form,74,3,image,15,_REACTION_TIME_,9999
1513009715,8ddea2e0d49037bb954860281f8f34b1,Form,36,3,image,7,2+120+60+0_2+60+120+1_1+120+120+2,1+120+120+2
1513009715,8ddea2e0d49037bb954860281f8f34b1,Form,36,3,image,7,_REACTION_TIME_,4372
1513009715,8ddea2e0d49037bb954860281f8f34b1,Form,173,3,image,34,2+120+120+0_1+60+120+1_2+120+60+2,2+120+120+0
1513009715,8ddea2e0d49037bb954860281f8f34b1,Form,173,3,image,34,_REACTION_TIME_,7286
1513009715,8ddea2e0d49037bb954860281f8f34b1,Form,67,3,image,13,2+120+120+0_2+60+120+1_2+120+60+2,2+120+120+0
1513009715,8ddea2e0d49037bb954860281f8f34b1,Form,67,3,image,13,_REACTION_TIME_,47029
1513009715,8ddea2e0d49037bb954860281f8f34b1,Form,23,3,image,4,1+60+120+0_2+120+120+1_1+120+120+2,2+120+120+1
1513009715,8ddea2e0d49037bb954860281f8f34b1,Form,23,3,image,4,_REACTION_TIME_,9896
1513009715,8ddea2e0d49037bb954860281f8f34b1,Form,24,3,image,5,1+120+120+0_2+120+60+1_2+60+120+2,1+120+120+0
1513009715,8ddea2e0d49037bb954860281f8f34b1,Form,24,3,image,5,_REACTION_TIME_,37986
1513009715,8ddea2e0d49037bb954860281f8f34b1,Form,48,3,image,9,2+60+120+0_1+120+120+1_1+60+120+2,2+60+120+0
1513009715,8ddea2e0d49037bb954860281f8f34b1,Form,48,3,image,9,_REACTION_TIME_,5661
1513009715,8ddea2e0d49037bb954860281f8f34b1,Form,167,3,image,33,2+120+60+0_1+120+60+1_1+120+120+2,1+120+120+2
1513009715,8ddea2e0d49037bb954860281f8f34b1,Form,167,3,image,33,_REACTION_TIME_,3540
1513009715,8ddea2e0d49037bb954860281f8f34b1,Form,180,3,image,36,1+60+120+0_2+120+120+1_1+120+60+2,2+120+120+1
1513009715,8ddea2e0d49037bb954860281f8f34b1,Form,180,3,image,36,_REACTION_TIME_,12124
1513009715,8ddea2e0d49037bb954860281f8f34b1,Form,117,3,image,23,2+120+60+0_1+120+120+1_1+60+120+2,1+120+120+1
1513009715,8ddea2e0d49037bb954860281f8f34b1,Form,117,3,image,23,_REACTION_TIME_,4232
1513009715,8ddea2e0d49037bb954860281f8f34b1,Form,111,3,image,22,1+120+60+0_2+120+120+1_1+60+120+2,2+120+120+1
1513009715,8ddea2e0d49037bb954860281f8f34b1,Form,111,3,image,22,_REACTION_TIME_,3411
1513009715,8ddea2e0d49037bb954860281f8f34b1,Form,123,3,image,24,2+120+60+0_1+120+120+1_1+60+120+2,2+120+60+0
1513009715,8ddea2e0d49037bb954860281f8f34b1,Form,123,3,image,24,_REACTION_TIME_,3719
1513009715,8ddea2e0d49037bb954860281f8f34b1,Form,49,3,image,10,1+60+120+0_1+120+120+1_2+60+120+2,1+120+120+1
1513009715,8ddea2e0d49037bb954860281f8f34b1,Form,49,3,image,10,_REACTION_TIME_,4149
1513009715,8ddea2e0d49037bb954860281f8f34b1,Form,136,3,image,27,1+120+120+0_1+120+60+1_2+60+120+2,1+120+120+0
1513009715,8ddea2e0d49037bb954860281f8f34b1,Form,136,3,image,27,_REACTION_TIME_,31283
1513009715,8ddea2e0d49037bb954860281f8f34b1,Form,124,3,image,25,1+120+120+0_1+120+60+1_1+60+120+2,1+120+120+0
1513009715,8ddea2e0d49037bb954860281f8f34b1,Form,124,3,image,25,_REACTION_TIME_,4460
1513009715,8ddea2e0d49037bb954860281f8f34b1,Form,17,3,image,3,2+120+120+0_1+60+120+1_1+120+60+2,1+120+60+2
1513009715,8ddea2e0d49037bb954860281f8f34b1,Form,17,3,image,3,_REACTION_TIME_,14224
1513009715,8ddea2e0d49037bb954860281f8f34b1,Form,99,3,image,20,1+120+120+0_2+120+60+1_1+60+120+2,1+120+120+0
1513009715,8ddea2e0d49037bb954860281f8f34b1,Form,99,3,image,20,_REACTION_TIME_,4881
1513009715,8ddea2e0d49037bb954860281f8f34b1,Form,80,3,image,16,2+60+120+0_2+120+120+1_1+60+120+2,2+120+120+1
1513009715,8ddea2e0d49037bb954860281f8f34b1,Form,80,3,image,16,_REACTION_TIME_,3554
1513009715,8ddea2e0d49037bb954860281f8f34b1,Form,98,3,image,19,1+120+60+0_1+120+120+1_2+60+120+2,2+60+120+2
1513009715,8ddea2e0d49037bb954860281f8f34b1,Form,98,3,image,19,_REACTION_TIME_,11535
1513009715,8ddea2e0d49037bb954860281f8f34b1,Form,73,3,image,14,2+120+60+0_1+120+120+1_1+120+60+2,1+120+120+1
1513009715,8ddea2e0d49037bb954860281f8f34b1,Form,73,3,image,14,_REACTION_TIME_,4307
1513009715,8ddea2e0d49037bb954860281f8f34b1,Form,5,3,image,1,1+60+120+0_1+120+120+1_1+120+60+2,1+120+120+1
1513009715,8ddea2e0d49037bb954860281f8f34b1,Form,5,3,image,1,_REACTION_TIME_,3933
1513009715,8ddea2e0d49037bb954860281f8f34b1,Form,161,3,image,32,1+60+120+0_1+120+60+1_2+120+60+2,1+120+60+1
1513009715,8ddea2e0d49037bb954860281f8f34b1,Form,161,3,image,32,_REACTION_TIME_,4619
1513009715,8ddea2e0d49037bb954860281f8f34b1,Form,130,3,image,26,1+120+60+0_2+120+60+1_1+120+120+2,2+120+60+1
1513009715,8ddea2e0d49037bb954860281f8f34b1,Form,130,3,image,26,_REACTION_TIME_,9355
1513009715,8ddea2e0d49037bb954860281f8f34b1,Form,30,3,image,6,2+120+120+0_2+120+60+1_1+60+120+2,2+120+120+0
1513009715,8ddea2e0d49037bb954860281f8f34b1,Form,30,3,image,6,_REACTION_TIME_,3690
1513009715,8ddea2e0d49037bb954860281f8f34b1,Form,142,3,image,28,2+120+120+0_2+60+120+1_1+120+60+2,1+120+60+2
1513009715,8ddea2e0d49037bb954860281f8f34b1,Form,142,3,image,28,_REACTION_TIME_,5965
1513009715,8ddea2e0d49037bb954860281f8f34b1,Form,155,3,image,31,1+120+60+0_2+120+120+1_1+120+120+2,2+120+120+1
1513009715,8ddea2e0d49037bb954860281f8f34b1,Form,155,3,image,31,_REACTION_TIME_,4261
1513009715,8ddea2e0d49037bb954860281f8f34b1,Form,149,3,image,30,2+60+120+0_2+120+120+1_2+120+60+2,2+120+120+1
1513009715,8ddea2e0d49037bb954860281f8f34b1,Form,149,3,image,30,_REACTION_TIME_,4365
1513009715,8ddea2e0d49037bb954860281f8f34b1,Form,86,3,image,17,2+120+60+0_2+60+120+1_2+120+120+2,2+120+120+2
1513009715,8ddea2e0d49037bb954860281f8f34b1,Form,86,3,image,17,_REACTION_TIME_,6467
1513009715,8ddea2e0d49037bb954860281f8f34b1,Form,148,3,image,29,2+120+120+0_1+120+60+1_2+60+120+2,2+120+120+0
1513009715,8ddea2e0d49037bb954860281f8f34b1,Form,148,3,image,29,_REACTION_TIME_,5180
1513009715,8ddea2e0d49037bb954860281f8f34b1,Form,61,3,image,12,2+60+120+0_1+120+120+1_2+120+120+2,1+120+120+1
1513009715,8ddea2e0d49037bb954860281f8f34b1,Form,61,3,image,12,_REACTION_TIME_,8280
1513009715,8ddea2e0d49037bb954860281f8f34b1,Form,105,3,image,21,1+120+60+0_2+120+120+1_2+60+120+2,2+120+120+1
1513009715,8ddea2e0d49037bb954860281f8f34b1,Form,105,3,image,21,_REACTION_TIME_,3931
1513009715,8ddea2e0d49037bb954860281f8f34b1,Form,92,3,image,18,2+60+120+0_1+120+120+1_2+120+120+2,1+120+120+1
1513009715,8ddea2e0d49037bb954860281f8f34b1,Form,92,3,image,18,_REACTION_TIME_,3057
1513009715,8ddea2e0d49037bb954860281f8f34b1,Form,42,3,image,8,2+120+60+0_1+120+60+1_2+60+120+2,1+120+60+1
1513009715,8ddea2e0d49037bb954860281f8f34b1,Form,42,3,image,8,_REACTION_TIME_,2965
1513009715,8ddea2e0d49037bb954860281f8f34b1,Form,1,0,debrief,NULL,purpose,honestly don't know
1513009715,8ddea2e0d49037bb954860281f8f34b1,Form,1,0,debrief,NULL,comments,
1513009715,8ddea2e0d49037bb954860281f8f34b1,Form,1,0,debrief,NULL,language,native
1513009715,8ddea2e0d49037bb954860281f8f34b1,Form,1,0,debrief,NULL,_REACTION_TIME_,26830
#
# Results on Monday December 11 2017 16:36:42 UTC.
# USER AGENT: Mozilla/5.0 (Windows NT 10.0; Win64; x64) AppleWebKit/537.36 (KHTML, like Gecko) Chrome/62.0.3202.94 Safari/537.36
# Design number was non-random = 73
#
# Columns below this comment are as follows:
# 1. Time results were received.
# 2. MD5 hash of participant's IP address.
# 3. Controller name.
# 4. Item number.
# 5. Element number.
# 6. Type.
# 7. Group.
# 8. Field name.
# 9. Field value.
1513010203,8f87aa9dbd5fd3d1e66ec16af7da938b,Form,0,0,intro,NULL,_REACTION_TIME_,26557
1513010203,8f87aa9dbd5fd3d1e66ec16af7da938b,Form,120,3,image,24,2+60+120+0_1+60+120+1_1+120+120+2,2+60+120+0
1513010203,8f87aa9dbd5fd3d1e66ec16af7da938b,Form,120,3,image,24,_REACTION_TIME_,12985
1513010203,8f87aa9dbd5fd3d1e66ec16af7da938b,Form,164,3,image,33,1+120+60+0_2+120+120+1_2+120+60+2,1+120+60+0
1513010203,8f87aa9dbd5fd3d1e66ec16af7da938b,Form,164,3,image,33,_REACTION_TIME_,5219
1513010203,8f87aa9dbd5fd3d1e66ec16af7da938b,Form,45,3,image,9,1+60+120+0_1+120+120+1_1+120+60+2,1+120+120+1
1513010203,8f87aa9dbd5fd3d1e66ec16af7da938b,Form,45,3,image,9,_REACTION_TIME_,7577
1513010203,8f87aa9dbd5fd3d1e66ec16af7da938b,Form,126,3,image,25,2+120+60+0_1+60+120+1_2+120+120+2,2+120+60+0
1513010203,8f87aa9dbd5fd3d1e66ec16af7da938b,Form,126,3,image,25,_REACTION_TIME_,6703
1513010203,8f87aa9dbd5fd3d1e66ec16af7da938b,Form,107,3,image,21,1+120+120+0_2+120+60+1_2+60+120+2,1+120+120+0
1513010203,8f87aa9dbd5fd3d1e66ec16af7da938b,Form,107,3,image,21,_REACTION_TIME_,4144
1513010203,8f87aa9dbd5fd3d1e66ec16af7da938b,Form,114,3,image,23,1+60+120+0_2+120+120+1_1+120+60+2,1+60+120+0
1513010203,8f87aa9dbd5fd3d1e66ec16af7da938b,Form,114,3,image,23,_REACTION_TIME_,5832
1513010203,8f87aa9dbd5fd3d1e66ec16af7da938b,Form,51,3,image,10,2+120+60+0_1+120+120+1_1+120+60+2,1+120+120+1
1513010203,8f87aa9dbd5fd3d1e66ec16af7da938b,Form,51,3,image,10,_REACTION_TIME_,5637
1513010203,8f87aa9dbd5fd3d1e66ec16af7da938b,Form,182,3,image,36,2+60+120+0_1+120+120+1_1+60+120+2,1+120+120+1
1513010203,8f87aa9dbd5fd3d1e66ec16af7da938b,Form,182,3,image,36,_REACTION_TIME_,5796
1513010203,8f87aa9dbd5fd3d1e66ec16af7da938b,Form,13,3,image,2,1+60+120+0_2+120+60+1_1+120+60+2,2+120+60+1
1513010203,8f87aa9dbd5fd3d1e66ec16af7da938b,Form,13,3,image,2,_REACTION_TIME_,6178
1513010203,8f87aa9dbd5fd3d1e66ec16af7da938b,Form,39,3,image,8,2+120+60+0_1+120+120+1_2+120+120+2,1+120+120+1
1513010203,8f87aa9dbd5fd3d1e66ec16af7da938b,Form,39,3,image,8,_REACTION_TIME_,5479
1513010203,8f87aa9dbd5fd3d1e66ec16af7da938b,Form,76,3,image,15,1+60+120+0_2+120+120+1_2+60+120+2,2+120+120+1
1513010203,8f87aa9dbd5fd3d1e66ec16af7da938b,Form,76,3,image,15,_REACTION_TIME_,4599
1513010203,8f87aa9dbd5fd3d1e66ec16af7da938b,Form,63,3,image,12,1+60+120+0_1+120+120+1_1+120+60+2,1+120+120+1
1513010203,8f87aa9dbd5fd3d1e66ec16af7da938b,Form,63,3,image,12,_REACTION_TIME_,6073
1513010203,8f87aa9dbd5fd3d1e66ec16af7da938b,Form,95,3,image,19,2+60+120+0_1+60+120+1_2+120+60+2,2+60+120+0
1513010203,8f87aa9dbd5fd3d1e66ec16af7da938b,Form,95,3,image,19,_REACTION_TIME_,5939
1513010203,8f87aa9dbd5fd3d1e66ec16af7da938b,Form,14,3,image,3,1+120+60+0_1+60+120+1_2+120+60+2,1+120+60+0
1513010203,8f87aa9dbd5fd3d1e66ec16af7da938b,Form,14,3,image,3,_REACTION_TIME_,4391
1513010203,8f87aa9dbd5fd3d1e66ec16af7da938b,Form,138,3,image,27,2+60+120+0_1+60+120+1_2+120+120+2,2+60+120+0
1513010203,8f87aa9dbd5fd3d1e66ec16af7da938b,Form,138,3,image,27,_REACTION_TIME_,4541
1513010203,8f87aa9dbd5fd3d1e66ec16af7da938b,Form,7,3,image,1,2+60+120+0_2+120+60+1_1+120+120+2,2+60+120+0
1513010203,8f87aa9dbd5fd3d1e66ec16af7da938b,Form,7,3,image,1,_REACTION_TIME_,5243
1513010203,8f87aa9dbd5fd3d1e66ec16af7da938b,Form,145,3,image,29,1+120+120+0_2+60+120+1_2+120+120+2,2+60+120+1
1513010203,8f87aa9dbd5fd3d1e66ec16af7da938b,Form,145,3,image,29,_REACTION_TIME_,3380
1513010203,8f87aa9dbd5fd3d1e66ec16af7da938b,Form,163,3,image,32,2+120+120+0_1+60+120+1_1+120+60+2,2+120+120+0
1513010203,8f87aa9dbd5fd3d1e66ec16af7da938b,Form,163,3,image,32,_REACTION_TIME_,4222
1513010203,8f87aa9dbd5fd3d1e66ec16af7da938b,Form,64,3,image,13,1+60+120+0_2+60+120+1_1+120+60+2,1+120+60+2
1513010203,8f87aa9dbd5fd3d1e66ec16af7da938b,Form,64,3,image,13,_REACTION_TIME_,4289
1513010203,8f87aa9dbd5fd3d1e66ec16af7da938b,Form,151,3,image,30,2+120+120+0_1+60+120+1_2+60+120+2,2+120+120+0
1513010203,8f87aa9dbd5fd3d1e66ec16af7da938b,Form,151,3,image,30,_REACTION_TIME_,6465
1513010203,8f87aa9dbd5fd3d1e66ec16af7da938b,Form,26,3,image,5,2+120+60+0_2+60+120+1_1+120+120+2,2+120+60+0
1513010203,8f87aa9dbd5fd3d1e66ec16af7da938b,Form,26,3,image,5,_REACTION_TIME_,5294
1513010203,8f87aa9dbd5fd3d1e66ec16af7da938b,Form,176,3,image,35,2+120+60+0_1+120+120+1_2+60+120+2,1+120+120+1
1513010203,8f87aa9dbd5fd3d1e66ec16af7da938b,Form,176,3,image,35,_REACTION_TIME_,3614
1513010203,8f87aa9dbd5fd3d1e66ec16af7da938b,Form,113,3,image,22,1+120+120+0_1+120+60+1_2+60+120+2,1+120+60+1
1513010203,8f87aa9dbd5fd3d1e66ec16af7da938b,Form,113,3,image,22,_REACTION_TIME_,4511
1513010203,8f87aa9dbd5fd3d1e66ec16af7da938b,Form,170,3,image,34,1+120+120+0_1+120+60+1_2+60+120+2,2+60+120+2
1513010203,8f87aa9dbd5fd3d1e66ec16af7da938b,Form,170,3,image,34,_REACTION_TIME_,5027
1513010203,8f87aa9dbd5fd3d1e66ec16af7da938b,Form,70,3,image,14,2+120+120+0_1+120+120+1_1+60+120+2,1+120+120+1
1513010203,8f87aa9dbd5fd3d1e66ec16af7da938b,Form,70,3,image,14,_REACTION_TIME_,3710
1513010203,8f87aa9dbd5fd3d1e66ec16af7da938b,Form,88,3,image,17,1+120+120+0_1+60+120+1_2+120+120+2,2+120+120+2
1513010203,8f87aa9dbd5fd3d1e66ec16af7da938b,Form,88,3,image,17,_REACTION_TIME_,6618
1513010203,8f87aa9dbd5fd3d1e66ec16af7da938b,Form,101,3,image,20,2+120+120+0_2+60+120+1_1+120+120+2,2+60+120+1
1513010203,8f87aa9dbd5fd3d1e66ec16af7da938b,Form,101,3,image,20,_REACTION_TIME_,5898
1513010203,8f87aa9dbd5fd3d1e66ec16af7da938b,Form,82,3,image,16,2+120+120+0_1+60+120+1_1+120+120+2,1+120+120+2
1513010203,8f87aa9dbd5fd3d1e66ec16af7da938b,Form,82,3,image,16,_REACTION_TIME_,4914
1513010203,8f87aa9dbd5fd3d1e66ec16af7da938b,Form,57,3,image,11,2+60+120+0_1+120+120+1_2+120+60+2,1+120+120+1
1513010203,8f87aa9dbd5fd3d1e66ec16af7da938b,Form,57,3,image,11,_REACTION_TIME_,3080
1513010203,8f87aa9dbd5fd3d1e66ec16af7da938b,Form,20,3,image,4,1+120+60+0_1+60+120+1_1+120+120+2,1+120+120+2
1513010203,8f87aa9dbd5fd3d1e66ec16af7da938b,Form,20,3,image,4,_REACTION_TIME_,3681
1513010203,8f87aa9dbd5fd3d1e66ec16af7da938b,Form,157,3,image,31,2+120+120+0_2+60+120+1_1+60+120+2,1+60+120+2
1513010203,8f87aa9dbd5fd3d1e66ec16af7da938b,Form,157,3,image,31,_REACTION_TIME_,4553
1513010203,8f87aa9dbd5fd3d1e66ec16af7da938b,Form,89,3,image,18,1+60+120+0_1+120+120+1_2+60+120+2,2+60+120+2
1513010203,8f87aa9dbd5fd3d1e66ec16af7da938b,Form,89,3,image,18,_REACTION_TIME_,4593
1513010203,8f87aa9dbd5fd3d1e66ec16af7da938b,Form,132,3,image,26,2+120+120+0_1+120+120+1_2+120+60+2,2+120+120+0
1513010203,8f87aa9dbd5fd3d1e66ec16af7da938b,Form,132,3,image,26,_REACTION_TIME_,3379
1513010203,8f87aa9dbd5fd3d1e66ec16af7da938b,Form,38,3,image,7,2+120+120+0_2+120+60+1_2+60+120+2,2+120+120+0
1513010203,8f87aa9dbd5fd3d1e66ec16af7da938b,Form,38,3,image,7,_REACTION_TIME_,4121
1513010203,8f87aa9dbd5fd3d1e66ec16af7da938b,Form,139,3,image,28,1+120+120+0_1+120+60+1_2+60+120+2,1+120+60+1
1513010203,8f87aa9dbd5fd3d1e66ec16af7da938b,Form,139,3,image,28,_REACTION_TIME_,3426
1513010203,8f87aa9dbd5fd3d1e66ec16af7da938b,Form,32,3,image,6,2+60+120+0_2+120+120+1_1+60+120+2,2+60+120+0
1513010203,8f87aa9dbd5fd3d1e66ec16af7da938b,Form,32,3,image,6,_REACTION_TIME_,4338
1513010203,8f87aa9dbd5fd3d1e66ec16af7da938b,Form,1,0,debrief,NULL,purpose,Not sure.
1513010203,8f87aa9dbd5fd3d1e66ec16af7da938b,Form,1,0,debrief,NULL,comments,Thank you.
1513010203,8f87aa9dbd5fd3d1e66ec16af7da938b,Form,1,0,debrief,NULL,language,native
1513010203,8f87aa9dbd5fd3d1e66ec16af7da938b,Form,1,0,debrief,NULL,_REACTION_TIME_,10339
#
# Results on Monday December 11 2017 16:45:09 UTC.
# USER AGENT: Mozilla/5.0 (Windows NT 6.1; Win64; x64) AppleWebKit/537.36 (KHTML, like Gecko) Chrome/62.0.3202.94 Safari/537.36
# Design number was non-random = 74
#
# Columns below this comment are as follows:
# 1. Time results were received.
# 2. MD5 hash of participant's IP address.
# 3. Controller name.
# 4. Item number.
# 5. Element number.
# 6. Type.
# 7. Group.
# 8. Field name.
# 9. Field value.
1513010709,53c1ec64f103fd95b2df55be5a49b7e6,Form,0,0,intro,NULL,_REACTION_TIME_,92965
1513010709,53c1ec64f103fd95b2df55be5a49b7e6,Form,134,3,image,27,1+120+60+0_2+120+120+1_2+120+60+2,2+120+120+1
1513010709,53c1ec64f103fd95b2df55be5a49b7e6,Form,134,3,image,27,_REACTION_TIME_,11091
1513010709,53c1ec64f103fd95b2df55be5a49b7e6,Form,15,3,image,3,2+120+60+0_2+60+120+1_1+60+120+2,2+60+120+1
1513010709,53c1ec64f103fd95b2df55be5a49b7e6,Form,15,3,image,3,_REACTION_TIME_,8066
1513010709,53c1ec64f103fd95b2df55be5a49b7e6,Form,121,3,image,24,2+120+60+0_1+120+60+1_1+120+120+2,1+120+120+2
1513010709,53c1ec64f103fd95b2df55be5a49b7e6,Form,121,3,image,24,_REACTION_TIME_,5824
1513010709,53c1ec64f103fd95b2df55be5a49b7e6,Form,140,3,image,28,1+120+60+0_1+60+120+1_2+120+120+2,2+120+120+2
1513010709,53c1ec64f103fd95b2df55be5a49b7e6,Form,140,3,image,28,_REACTION_TIME_,5324
1513010709,53c1ec64f103fd95b2df55be5a49b7e6,Form,59,3,image,12,2+120+60+0_2+120+120+1_1+120+120+2,1+120+120+2
1513010709,53c1ec64f103fd95b2df55be5a49b7e6,Form,59,3,image,12,_REACTION_TIME_,4550
1513010709,53c1ec64f103fd95b2df55be5a49b7e6,Form,58,3,image,11,2+60+120+0_2+120+120+1_1+120+120+2,2+120+120+1
1513010709,53c1ec64f103fd95b2df55be5a49b7e6,Form,58,3,image,11,_REACTION_TIME_,5420
1513010709,53c1ec64f103fd95b2df55be5a49b7e6,Form,9,3,image,2,1+120+120+0_2+120+60+1_2+60+120+2,1+120+120+0
1513010709,53c1ec64f103fd95b2df55be5a49b7e6,Form,9,3,image,2,_REACTION_TIME_,4366
1513010709,53c1ec64f103fd95b2df55be5a49b7e6,Form,152,3,image,30,2+120+60+0_1+120+120+1_2+60+120+2,1+120+120+1
1513010709,53c1ec64f103fd95b2df55be5a49b7e6,Form,152,3,image,30,_REACTION_TIME_,6278
1513010709,53c1ec64f103fd95b2df55be5a49b7e6,Form,183,3,image,36,1+120+120+0_1+60+120+1_2+120+60+2,2+120+60+2
1513010709,53c1ec64f103fd95b2df55be5a49b7e6,Form,183,3,image,36,_REACTION_TIME_,5661
1513010709,53c1ec64f103fd95b2df55be5a49b7e6,Form,158,3,image,31,1+120+120+0_2+120+60+1_2+60+120+2,2+60+120+2
1513010709,53c1ec64f103fd95b2df55be5a49b7e6,Form,158,3,image,31,_REACTION_TIME_,7675
1513010709,53c1ec64f103fd95b2df55be5a49b7e6,Form,77,3,image,15,2+60+120+0_1+120+60+1_1+120+120+2,1+120+120+2
1513010709,53c1ec64f103fd95b2df55be5a49b7e6,Form,77,3,image,15,_REACTION_TIME_,3885
1513010709,53c1ec64f103fd95b2df55be5a49b7e6,Form,40,3,image,8,2+60+120+0_2+120+120+1_1+120+60+2,2+120+120+1
1513010709,53c1ec64f103fd95b2df55be5a49b7e6,Form,40,3,image,8,_REACTION_TIME_,5245
1513010709,53c1ec64f103fd95b2df55be5a49b7e6,Form,115,3,image,23,1+120+60+0_2+60+120+1_1+120+120+2,2+60+120+1
1513010709,53c1ec64f103fd95b2df55be5a49b7e6,Form,115,3,image,23,_REACTION_TIME_,7405
1513010709,53c1ec64f103fd95b2df55be5a49b7e6,Form,171,3,image,34,1+120+60+0_2+60+120+1_2+120+60+2,2+120+60+2
1513010709,53c1ec64f103fd95b2df55be5a49b7e6,Form,171,3,image,34,_REACTION_TIME_,6500
1513010709,53c1ec64f103fd95b2df55be5a49b7e6,Form,133,3,image,26,1+120+120+0_2+60+120+1_1+60+120+2,2+60+120+1
1513010709,53c1ec64f103fd95b2df55be5a49b7e6,Form,133,3,image,26,_REACTION_TIME_,5633
1513010709,53c1ec64f103fd95b2df55be5a49b7e6,Form,108,3,image,21,1+120+120+0_1+120+60+1_1+60+120+2,1+120+120+0
1513010709,53c1ec64f103fd95b2df55be5a49b7e6,Form,108,3,image,21,_REACTION_TIME_,6390
1513010709,53c1ec64f103fd95b2df55be5a49b7e6,Form,90,3,image,18,1+60+120+0_2+120+120+1_2+60+120+2,2+120+120+1
1513010709,53c1ec64f103fd95b2df55be5a49b7e6,Form,90,3,image,18,_REACTION_TIME_,3432
1513010709,53c1ec64f103fd95b2df55be5a49b7e6,Form,102,3,image,20,1+60+120+0_1+120+120+1_2+120+120+2,1+120+120+1
1513010709,53c1ec64f103fd95b2df55be5a49b7e6,Form,102,3,image,20,_REACTION_TIME_,3692
1513010709,53c1ec64f103fd95b2df55be5a49b7e6,Form,27,3,image,5,2+120+60+0_2+60+120+1_1+120+120+2,1+120+120+2
1513010709,53c1ec64f103fd95b2df55be5a49b7e6,Form,27,3,image,5,_REACTION_TIME_,3410
1513010709,53c1ec64f103fd95b2df55be5a49b7e6,Form,52,3,image,10,1+60+120+0_1+120+60+1_2+120+120+2,1+60+120+0
1513010709,53c1ec64f103fd95b2df55be5a49b7e6,Form,52,3,image,10,_REACTION_TIME_,5890
1513010709,53c1ec64f103fd95b2df55be5a49b7e6,Form,33,3,image,6,2+120+120+0_2+60+120+1_2+120+60+2,2+120+120+0
1513010709,53c1ec64f103fd95b2df55be5a49b7e6,Form,33,3,image,6,_REACTION_TIME_,3428
1513010709,53c1ec64f103fd95b2df55be5a49b7e6,Form,71,3,image,14,2+120+60+0_1+120+60+1_2+60+120+2,2+60+120+2
1513010709,53c1ec64f103fd95b2df55be5a49b7e6,Form,71,3,image,14,_REACTION_TIME_,7240
1513010709,53c1ec64f103fd95b2df55be5a49b7e6,Form,84,3,image,17,2+120+60+0_1+120+120+1_1+60+120+2,1+120+120+1
1513010709,53c1ec64f103fd95b2df55be5a49b7e6,Form,84,3,image,17,_REACTION_TIME_,3887
1513010709,53c1ec64f103fd95b2df55be5a49b7e6,Form,83,3,image,16,2+120+120+0_2+60+120+1_1+60+120+2,2+120+120+0
1513010709,53c1ec64f103fd95b2df55be5a49b7e6,Form,83,3,image,16,_REACTION_TIME_,5080
1513010709,53c1ec64f103fd95b2df55be5a49b7e6,Form,109,3,image,22,2+120+60+0_2+120+120+1_2+60+120+2,2+120+120+1
1513010709,53c1ec64f103fd95b2df55be5a49b7e6,Form,109,3,image,22,_REACTION_TIME_,5605
1513010709,53c1ec64f103fd95b2df55be5a49b7e6,Form,159,3,image,32,1+120+60+0_2+60+120+1_2+120+120+2,1+120+60+0
1513010709,53c1ec64f103fd95b2df55be5a49b7e6,Form,159,3,image,32,_REACTION_TIME_,3887
1513010709,53c1ec64f103fd95b2df55be5a49b7e6,Form,96,3,image,19,2+60+120+0_1+60+120+1_1+120+120+2,1+120+120+2
1513010709,53c1ec64f103fd95b2df55be5a49b7e6,Form,96,3,image,19,_REACTION_TIME_,6923
1513010709,53c1ec64f103fd95b2df55be5a49b7e6,Form,177,3,image,35,1+120+60+0_1+120+120+1_1+60+120+2,1+120+120+1
1513010709,53c1ec64f103fd95b2df55be5a49b7e6,Form,177,3,image,35,_REACTION_TIME_,3864
1513010709,53c1ec64f103fd95b2df55be5a49b7e6,Form,127,3,image,25,1+120+120+0_1+60+120+1_1+120+60+2,1+120+120+0
1513010709,53c1ec64f103fd95b2df55be5a49b7e6,Form,127,3,image,25,_REACTION_TIME_,4515
1513010709,53c1ec64f103fd95b2df55be5a49b7e6,Form,146,3,image,29,1+60+120+0_2+60+120+1_2+120+60+2,2+60+120+1
1513010709,53c1ec64f103fd95b2df55be5a49b7e6,Form,146,3,image,29,_REACTION_TIME_,5264
1513010709,53c1ec64f103fd95b2df55be5a49b7e6,Form,8,3,image,1,1+120+60+0_1+60+120+1_1+120+120+2,1+120+120+2
1513010709,53c1ec64f103fd95b2df55be5a49b7e6,Form,8,3,image,1,_REACTION_TIME_,10853
1513010709,53c1ec64f103fd95b2df55be5a49b7e6,Form,46,3,image,9,2+120+120+0_2+120+60+1_1+120+60+2,2+120+120+0
1513010709,53c1ec64f103fd95b2df55be5a49b7e6,Form,46,3,image,9,_REACTION_TIME_,4184
1513010709,53c1ec64f103fd95b2df55be5a49b7e6,Form,165,3,image,33,1+60+120+0_2+120+60+1_1+120+120+2,2+120+60+1
1513010709,53c1ec64f103fd95b2df55be5a49b7e6,Form,165,3,image,33,_REACTION_TIME_,5970
1513010709,53c1ec64f103fd95b2df55be5a49b7e6,Form,65,3,image,13,2+60+120+0_1+120+120+1_2+120+60+2,2+60+120+0
1513010709,53c1ec64f103fd95b2df55be5a49b7e6,Form,65,3,image,13,_REACTION_TIME_,7280
1513010709,53c1ec64f103fd95b2df55be5a49b7e6,Form,21,3,image,4,1+120+60+0_2+120+60+1_2+120+120+2,2+120+120+2
1513010709,53c1ec64f103fd95b2df55be5a49b7e6,Form,21,3,image,4,_REACTION_TIME_,4217
1513010709,53c1ec64f103fd95b2df55be5a49b7e6,Form,34,3,image,7,2+60+120+0_1+120+120+1_2+120+120+2,1+120+120+1
1513010709,53c1ec64f103fd95b2df55be5a49b7e6,Form,34,3,image,7,_REACTION_TIME_,4328
1513010709,53c1ec64f103fd95b2df55be5a49b7e6,Form,1,0,debrief,NULL,purpose,I have no idea%2C but it was fun.
1513010709,53c1ec64f103fd95b2df55be5a49b7e6,Form,1,0,debrief,NULL,comments,A sincere thank you for the work :)%0A
1513010709,53c1ec64f103fd95b2df55be5a49b7e6,Form,1,0,debrief,NULL,language,native
1513010709,53c1ec64f103fd95b2df55be5a49b7e6,Form,1,0,debrief,NULL,_REACTION_TIME_,30782
#
# Results on Monday December 11 2017 16:46:22 UTC.
# USER AGENT: Mozilla/5.0 (Windows NT 10.0; Win64; x64) AppleWebKit/537.36 (KHTML, like Gecko) Chrome/62.0.3202.94 Safari/537.36
# Design number was non-random = 75
#
# Columns below this comment are as follows:
# 1. Time results were received.
# 2. MD5 hash of participant's IP address.
# 3. Controller name.
# 4. Item number.
# 5. Element number.
# 6. Type.
# 7. Group.
# 8. Field name.
# 9. Field value.
1513010783,dd2a1b06ddff5cc3ac591290ec0a6542,Form,0,0,intro,NULL,_REACTION_TIME_,15646
1513010783,dd2a1b06ddff5cc3ac591290ec0a6542,Form,104,3,image,21,1+120+120+0_1+60+120+1_2+60+120+2,1+120+120+0
1513010783,dd2a1b06ddff5cc3ac591290ec0a6542,Form,104,3,image,21,_REACTION_TIME_,8125
1513010783,dd2a1b06ddff5cc3ac591290ec0a6542,Form,35,3,image,7,1+60+120+0_2+120+60+1_2+60+120+2,2+60+120+2
1513010783,dd2a1b06ddff5cc3ac591290ec0a6542,Form,35,3,image,7,_REACTION_TIME_,6654
1513010783,dd2a1b06ddff5cc3ac591290ec0a6542,Form,41,3,image,8,1+120+120+0_1+60+120+1_2+120+120+2,1+120+120+0
1513010783,dd2a1b06ddff5cc3ac591290ec0a6542,Form,41,3,image,8,_REACTION_TIME_,9365
1513010783,dd2a1b06ddff5cc3ac591290ec0a6542,Form,129,3,image,26,2+120+120+0_1+120+60+1_1+60+120+2,1+60+120+2
1513010783,dd2a1b06ddff5cc3ac591290ec0a6542,Form,129,3,image,26,_REACTION_TIME_,5069
1513010783,dd2a1b06ddff5cc3ac591290ec0a6542,Form,54,3,image,11,1+60+120+0_2+60+120+1_2+120+120+2,1+60+120+0
1513010783,dd2a1b06ddff5cc3ac591290ec0a6542,Form,54,3,image,11,_REACTION_TIME_,9388
1513010783,dd2a1b06ddff5cc3ac591290ec0a6542,Form,110,3,image,22,2+120+60+0_1+120+60+1_2+120+120+2,2+120+120+2
1513010783,dd2a1b06ddff5cc3ac591290ec0a6542,Form,110,3,image,22,_REACTION_TIME_,3909
1513010783,dd2a1b06ddff5cc3ac591290ec0a6542,Form,122,3,image,24,2+120+120+0_2+60+120+1_1+60+120+2,1+60+120+2
1513010783,dd2a1b06ddff5cc3ac591290ec0a6542,Form,122,3,image,24,_REACTION_TIME_,5128
1513010783,dd2a1b06ddff5cc3ac591290ec0a6542,Form,79,3,image,16,1+120+120+0_1+60+120+1_2+120+60+2,1+120+120+0
1513010783,dd2a1b06ddff5cc3ac591290ec0a6542,Form,79,3,image,16,_REACTION_TIME_,8626
1513010783,dd2a1b06ddff5cc3ac591290ec0a6542,Form,147,3,image,29,2+120+120+0_1+120+60+1_1+60+120+2,1+60+120+2
1513010783,dd2a1b06ddff5cc3ac591290ec0a6542,Form,147,3,image,29,_REACTION_TIME_,4657
1513010783,dd2a1b06ddff5cc3ac591290ec0a6542,Form,91,3,image,18,1+120+120+0_2+120+120+1_1+60+120+2,1+120+120+0
1513010783,dd2a1b06ddff5cc3ac591290ec0a6542,Form,91,3,image,18,_REACTION_TIME_,7544
1513010783,dd2a1b06ddff5cc3ac591290ec0a6542,Form,29,3,image,6,1+60+120+0_1+120+60+1_2+60+120+2,1+120+60+1
1513010783,dd2a1b06ddff5cc3ac591290ec0a6542,Form,29,3,image,6,_REACTION_TIME_,4382
1513010783,dd2a1b06ddff5cc3ac591290ec0a6542,Form,141,3,image,28,1+60+120+0_2+60+120+1_2+120+60+2,2+60+120+1
1513010783,dd2a1b06ddff5cc3ac591290ec0a6542,Form,141,3,image,28,_REACTION_TIME_,11176
1513010783,dd2a1b06ddff5cc3ac591290ec0a6542,Form,116,3,image,23,2+60+120+0_2+120+60+1_1+120+60+2,2+60+120+0
1513010783,dd2a1b06ddff5cc3ac591290ec0a6542,Form,116,3,image,23,_REACTION_TIME_,7450
1513010783,dd2a1b06ddff5cc3ac591290ec0a6542,Form,160,3,image,32,1+60+120+0_2+60+120+1_1+120+60+2,1+120+60+2
1513010783,dd2a1b06ddff5cc3ac591290ec0a6542,Form,160,3,image,32,_REACTION_TIME_,7130
1513010783,dd2a1b06ddff5cc3ac591290ec0a6542,Form,22,3,image,4,2+120+60+0_1+60+120+1_2+60+120+2,2+60+120+2
1513010783,dd2a1b06ddff5cc3ac591290ec0a6542,Form,22,3,image,4,_REACTION_TIME_,5126
1513010783,dd2a1b06ddff5cc3ac591290ec0a6542,Form,97,3,image,19,1+60+120+0_2+60+120+1_1+120+120+2,1+120+120+2
1513010783,dd2a1b06ddff5cc3ac591290ec0a6542,Form,97,3,image,19,_REACTION_TIME_,4206
1513010783,dd2a1b06ddff5cc3ac591290ec0a6542,Form,72,3,image,14,1+120+120+0_1+60+120+1_2+120+120+2,2+120+120+2
1513010783,dd2a1b06ddff5cc3ac591290ec0a6542,Form,72,3,image,14,_REACTION_TIME_,7231
1513010783,dd2a1b06ddff5cc3ac591290ec0a6542,Form,4,3,image,1,1+120+60+0_1+120+120+1_2+60+120+2,1+120+120+1
1513010783,dd2a1b06ddff5cc3ac591290ec0a6542,Form,4,3,image,1,_REACTION_TIME_,3597
1513010783,dd2a1b06ddff5cc3ac591290ec0a6542,Form,172,3,image,34,2+60+120+0_2+120+60+1_1+60+120+2,2+120+60+1
1513010783,dd2a1b06ddff5cc3ac591290ec0a6542,Form,172,3,image,34,_REACTION_TIME_,4358
1513010783,dd2a1b06ddff5cc3ac591290ec0a6542,Form,166,3,image,33,1+120+120+0_2+120+60+1_2+120+120+2,2+120+120+2
1513010783,dd2a1b06ddff5cc3ac591290ec0a6542,Form,166,3,image,33,_REACTION_TIME_,6769
1513010783,dd2a1b06ddff5cc3ac591290ec0a6542,Form,154,3,image,31,1+60+120+0_2+120+60+1_2+60+120+2,1+60+120+0
1513010783,dd2a1b06ddff5cc3ac591290ec0a6542,Form,154,3,image,31,_REACTION_TIME_,7594
1513010783,dd2a1b06ddff5cc3ac591290ec0a6542,Form,47,3,image,9,1+60+120+0_1+120+120+1_2+120+60+2,1+120+120+1
1513010783,dd2a1b06ddff5cc3ac591290ec0a6542,Form,47,3,image,9,_REACTION_TIME_,5895
1513010783,dd2a1b06ddff5cc3ac591290ec0a6542,Form,85,3,image,17,1+120+60+0_1+120+120+1_2+120+120+2,1+120+120+1
1513010783,dd2a1b06ddff5cc3ac591290ec0a6542,Form,85,3,image,17,_REACTION_TIME_,4040
1513010783,dd2a1b06ddff5cc3ac591290ec0a6542,Form,153,3,image,30,2+120+60+0_1+60+120+1_1+120+60+2,1+60+120+1
1513010783,dd2a1b06ddff5cc3ac591290ec0a6542,Form,153,3,image,30,_REACTION_TIME_,7609
1513010783,dd2a1b06ddff5cc3ac591290ec0a6542,Form,60,3,image,12,2+60+120+0_1+120+60+1_2+120+120+2,2+120+120+2
1513010783,dd2a1b06ddff5cc3ac591290ec0a6542,Form,60,3,image,12,_REACTION_TIME_,11826
1513010783,dd2a1b06ddff5cc3ac591290ec0a6542,Form,103,3,image,20,1+120+120+0_2+120+120+1_1+60+120+2,2+120+120+1
1513010783,dd2a1b06ddff5cc3ac591290ec0a6542,Form,103,3,image,20,_REACTION_TIME_,4531
1513010783,dd2a1b06ddff5cc3ac591290ec0a6542,Form,179,3,image,36,1+120+60+0_2+120+120+1_2+60+120+2,2+120+120+1
1513010783,dd2a1b06ddff5cc3ac591290ec0a6542,Form,179,3,image,36,_REACTION_TIME_,4222
1513010783,dd2a1b06ddff5cc3ac591290ec0a6542,Form,53,3,image,10,1+120+120+0_1+60+120+1_2+120+120+2,2+120+120+2
1513010783,dd2a1b06ddff5cc3ac591290ec0a6542,Form,53,3,image,10,_REACTION_TIME_,4969
1513010783,dd2a1b06ddff5cc3ac591290ec0a6542,Form,135,3,image,27,1+60+120+0_2+120+120+1_2+120+60+2,2+120+120+1
1513010783,dd2a1b06ddff5cc3ac591290ec0a6542,Form,135,3,image,27,_REACTION_TIME_,4627
1513010783,dd2a1b06ddff5cc3ac591290ec0a6542,Form,10,3,image,2,2+60+120+0_1+60+120+1_2+120+120+2,2+120+120+2
1513010783,dd2a1b06ddff5cc3ac591290ec0a6542,Form,10,3,image,2,_REACTION_TIME_,5486
1513010783,dd2a1b06ddff5cc3ac591290ec0a6542,Form,16,3,image,3,2+120+120+0_1+120+120+1_1+60+120+2,1+120+120+1
1513010783,dd2a1b06ddff5cc3ac591290ec0a6542,Form,16,3,image,3,_REACTION_TIME_,4366
1513010783,dd2a1b06ddff5cc3ac591290ec0a6542,Form,78,3,image,15,2+120+120+0_1+60+120+1_2+60+120+2,2+120+120+0
1513010783,dd2a1b06ddff5cc3ac591290ec0a6542,Form,78,3,image,15,_REACTION_TIME_,5176
1513010783,dd2a1b06ddff5cc3ac591290ec0a6542,Form,128,3,image,25,1+120+120+0_2+120+60+1_1+120+60+2,1+120+120+0
1513010783,dd2a1b06ddff5cc3ac591290ec0a6542,Form,128,3,image,25,_REACTION_TIME_,6065
1513010783,dd2a1b06ddff5cc3ac591290ec0a6542,Form,178,3,image,35,2+60+120+0_2+120+120+1_2+120+60+2,2+120+120+1
1513010783,dd2a1b06ddff5cc3ac591290ec0a6542,Form,178,3,image,35,_REACTION_TIME_,5278
1513010783,dd2a1b06ddff5cc3ac591290ec0a6542,Form,66,3,image,13,2+60+120+0_2+120+60+1_2+120+120+2,2+120+120+2
1513010783,dd2a1b06ddff5cc3ac591290ec0a6542,Form,66,3,image,13,_REACTION_TIME_,5906
1513010783,dd2a1b06ddff5cc3ac591290ec0a6542,Form,28,3,image,5,1+120+60+0_2+60+120+1_1+60+120+2,1+120+60+0
1513010783,dd2a1b06ddff5cc3ac591290ec0a6542,Form,28,3,image,5,_REACTION_TIME_,5548
1513010783,dd2a1b06ddff5cc3ac591290ec0a6542,Form,1,0,debrief,NULL,purpose,not sure
1513010783,dd2a1b06ddff5cc3ac591290ec0a6542,Form,1,0,debrief,NULL,comments,
1513010783,dd2a1b06ddff5cc3ac591290ec0a6542,Form,1,0,debrief,NULL,language,native
1513010783,dd2a1b06ddff5cc3ac591290ec0a6542,Form,1,0,debrief,NULL,_REACTION_TIME_,12947
#
# Results on Monday December 11 2017 16:57:40 UTC.
# USER AGENT: Mozilla/5.0 (Windows NT 6.3; Win64; x64) AppleWebKit/537.36 (KHTML, like Gecko) Chrome/62.0.3202.94 Safari/537.36
# Design number was non-random = 76
#
# Columns below this comment are as follows:
# 1. Time results were received.
# 2. MD5 hash of participant's IP address.
# 3. Controller name.
# 4. Item number.
# 5. Element number.
# 6. Type.
# 7. Group.
# 8. Field name.
# 9. Field value.
1513011460,52b84b69a1d1410f1c1efadb7fc47c82,Form,0,0,intro,NULL,_REACTION_TIME_,56525
1513011460,52b84b69a1d1410f1c1efadb7fc47c82,Form,123,3,image,24,1+120+60+0_2+120+60+1_2+120+120+2,2+120+120+2
1513011460,52b84b69a1d1410f1c1efadb7fc47c82,Form,123,3,image,24,_REACTION_TIME_,9295
1513011460,52b84b69a1d1410f1c1efadb7fc47c82,Form,67,3,image,13,1+120+120+0_2+60+120+1_1+120+60+2,1+120+120+0
1513011460,52b84b69a1d1410f1c1efadb7fc47c82,Form,67,3,image,13,_REACTION_TIME_,4366
1513011460,52b84b69a1d1410f1c1efadb7fc47c82,Form,105,3,image,21,2+60+120+0_1+120+120+1_2+120+60+2,1+120+120+1
1513011460,52b84b69a1d1410f1c1efadb7fc47c82,Form,105,3,image,21,_REACTION_TIME_,3751
1513011460,52b84b69a1d1410f1c1efadb7fc47c82,Form,111,3,image,22,2+120+60+0_2+120+120+1_1+120+120+2,2+120+120+1
1513011460,52b84b69a1d1410f1c1efadb7fc47c82,Form,111,3,image,22,_REACTION_TIME_,4276
1513011460,52b84b69a1d1410f1c1efadb7fc47c82,Form,17,3,image,3,2+120+60+0_1+120+120+1_2+60+120+2,1+120+120+1
1513011460,52b84b69a1d1410f1c1efadb7fc47c82,Form,17,3,image,3,_REACTION_TIME_,2861
1513011460,52b84b69a1d1410f1c1efadb7fc47c82,Form,48,3,image,9,1+120+120+0_1+120+60+1_2+120+60+2,1+120+120+0
1513011460,52b84b69a1d1410f1c1efadb7fc47c82,Form,48,3,image,9,_REACTION_TIME_,36352
1513011460,52b84b69a1d1410f1c1efadb7fc47c82,Form,30,3,image,6,1+120+120+0_1+120+60+1_2+120+120+2,2+120+120+2
1513011460,52b84b69a1d1410f1c1efadb7fc47c82,Form,30,3,image,6,_REACTION_TIME_,6521
1513011460,52b84b69a1d1410f1c1efadb7fc47c82,Form,173,3,image,34,1+120+120+0_1+120+60+1_2+120+60+2,1+120+120+0
1513011460,52b84b69a1d1410f1c1efadb7fc47c82,Form,173,3,image,34,_REACTION_TIME_,3581
1513011460,52b84b69a1d1410f1c1efadb7fc47c82,Form,36,3,image,7,2+120+60+0_2+120+120+1_1+120+60+2,2+120+120+1
1513011460,52b84b69a1d1410f1c1efadb7fc47c82,Form,36,3,image,7,_REACTION_TIME_,9296
1513011460,52b84b69a1d1410f1c1efadb7fc47c82,Form,99,3,image,20,1+120+120+0_2+60+120+1_1+120+60+2,1+120+120+0
1513011460,52b84b69a1d1410f1c1efadb7fc47c82,Form,99,3,image,20,_REACTION_TIME_,4984
1513011460,52b84b69a1d1410f1c1efadb7fc47c82,Form,11,3,image,2,1+120+60+0_1+120+120+1_2+120+120+2,2+120+120+2
1513011460,52b84b69a1d1410f1c1efadb7fc47c82,Form,11,3,image,2,_REACTION_TIME_,3104
1513011460,52b84b69a1d1410f1c1efadb7fc47c82,Form,5,3,image,1,2+60+120+0_1+120+120+1_1+120+60+2,1+120+120+1
1513011460,52b84b69a1d1410f1c1efadb7fc47c82,Form,5,3,image,1,_REACTION_TIME_,2434
1513011460,52b84b69a1d1410f1c1efadb7fc47c82,Form,80,3,image,16,2+120+120+0_1+60+120+1_1+120+60+2,2+120+120+0
1513011460,52b84b69a1d1410f1c1efadb7fc47c82,Form,80,3,image,16,_REACTION_TIME_,13883
1513011460,52b84b69a1d1410f1c1efadb7fc47c82,Form,149,3,image,30,1+60+120+0_2+60+120+1_2+120+120+2,2+120+120+2
1513011460,52b84b69a1d1410f1c1efadb7fc47c82,Form,149,3,image,30,_REACTION_TIME_,4224
1513011460,52b84b69a1d1410f1c1efadb7fc47c82,Form,155,3,image,31,2+120+60+0_2+60+120+1_1+120+120+2,1+120+120+2
1513011460,52b84b69a1d1410f1c1efadb7fc47c82,Form,155,3,image,31,_REACTION_TIME_,3347
1513011460,52b84b69a1d1410f1c1efadb7fc47c82,Form,73,3,image,14,1+120+60+0_1+120+120+1_2+60+120+2,1+120+120+1
1513011460,52b84b69a1d1410f1c1efadb7fc47c82,Form,73,3,image,14,_REACTION_TIME_,2651
1513011460,52b84b69a1d1410f1c1efadb7fc47c82,Form,23,3,image,4,2+120+60+0_2+60+120+1_1+120+120+2,1+120+120+2
1513011460,52b84b69a1d1410f1c1efadb7fc47c82,Form,23,3,image,4,_REACTION_TIME_,3205
1513011460,52b84b69a1d1410f1c1efadb7fc47c82,Form,142,3,image,28,2+120+60+0_2+60+120+1_2+120+120+2,2+120+120+2
1513011460,52b84b69a1d1410f1c1efadb7fc47c82,Form,142,3,image,28,_REACTION_TIME_,2235
1513011460,52b84b69a1d1410f1c1efadb7fc47c82,Form,136,3,image,27,2+120+60+0_1+60+120+1_2+120+120+2,2+120+120+2
1513011460,52b84b69a1d1410f1c1efadb7fc47c82,Form,136,3,image,27,_REACTION_TIME_,2620
1513011460,52b84b69a1d1410f1c1efadb7fc47c82,Form,86,3,image,17,1+120+120+0_2+60+120+1_1+120+60+2,1+120+120+0
1513011460,52b84b69a1d1410f1c1efadb7fc47c82,Form,86,3,image,17,_REACTION_TIME_,7523
1513011460,52b84b69a1d1410f1c1efadb7fc47c82,Form,167,3,image,33,2+120+120+0_2+60+120+1_1+120+60+2,2+120+120+0
1513011460,52b84b69a1d1410f1c1efadb7fc47c82,Form,167,3,image,33,_REACTION_TIME_,4368
1513011460,52b84b69a1d1410f1c1efadb7fc47c82,Form,117,3,image,23,2+60+120+0_1+120+120+1_2+120+60+2,1+120+120+1
1513011460,52b84b69a1d1410f1c1efadb7fc47c82,Form,117,3,image,23,_REACTION_TIME_,2767
1513011460,52b84b69a1d1410f1c1efadb7fc47c82,Form,24,3,image,5,1+120+120+0_2+120+60+1_1+60+120+2,1+120+120+0
1513011460,52b84b69a1d1410f1c1efadb7fc47c82,Form,24,3,image,5,_REACTION_TIME_,4837
1513011460,52b84b69a1d1410f1c1efadb7fc47c82,Form,42,3,image,8,2+120+120+0_2+120+60+1_2+60+120+2,2+120+120+0
1513011460,52b84b69a1d1410f1c1efadb7fc47c82,Form,42,3,image,8,_REACTION_TIME_,33859
1513011460,52b84b69a1d1410f1c1efadb7fc47c82,Form,92,3,image,18,2+120+60+0_1+60+120+1_2+120+120+2,2+120+120+2
1513011460,52b84b69a1d1410f1c1efadb7fc47c82,Form,92,3,image,18,_REACTION_TIME_,2820
1513011460,52b84b69a1d1410f1c1efadb7fc47c82,Form,124,3,image,25,2+120+60+0_1+60+120+1_2+120+120+2,2+120+120+2
1513011460,52b84b69a1d1410f1c1efadb7fc47c82,Form,124,3,image,25,_REACTION_TIME_,2841
1513011460,52b84b69a1d1410f1c1efadb7fc47c82,Form,61,3,image,12,2+120+60+0_2+120+120+1_1+60+120+2,2+120+120+1
1513011460,52b84b69a1d1410f1c1efadb7fc47c82,Form,61,3,image,12,_REACTION_TIME_,4242
1513011460,52b84b69a1d1410f1c1efadb7fc47c82,Form,98,3,image,19,1+120+120+0_1+120+60+1_2+120+120+2,2+120+120+2
1513011460,52b84b69a1d1410f1c1efadb7fc47c82,Form,98,3,image,19,_REACTION_TIME_,2781
1513011460,52b84b69a1d1410f1c1efadb7fc47c82,Form,180,3,image,36,1+120+60+0_2+120+120+1_2+60+120+2,2+120+120+1
1513011460,52b84b69a1d1410f1c1efadb7fc47c82,Form,180,3,image,36,_REACTION_TIME_,3157
1513011460,52b84b69a1d1410f1c1efadb7fc47c82,Form,74,3,image,15,1+60+120+0_1+120+60+1_1+120+120+2,1+120+120+2
1513011460,52b84b69a1d1410f1c1efadb7fc47c82,Form,74,3,image,15,_REACTION_TIME_,48943
1513011460,52b84b69a1d1410f1c1efadb7fc47c82,Form,130,3,image,26,2+60+120+0_1+60+120+1_1+120+60+2,2+60+120+0
1513011460,52b84b69a1d1410f1c1efadb7fc47c82,Form,130,3,image,26,_REACTION_TIME_,5992
1513011460,52b84b69a1d1410f1c1efadb7fc47c82,Form,174,3,image,35,1+120+60+0_1+60+120+1_2+120+120+2,2+120+120+2
1513011460,52b84b69a1d1410f1c1efadb7fc47c82,Form,174,3,image,35,_REACTION_TIME_,7829
1513011460,52b84b69a1d1410f1c1efadb7fc47c82,Form,161,3,image,32,1+120+60+0_1+60+120+1_2+120+120+2,1+60+120+1
1513011460,52b84b69a1d1410f1c1efadb7fc47c82,Form,161,3,image,32,_REACTION_TIME_,3522
1513011460,52b84b69a1d1410f1c1efadb7fc47c82,Form,55,3,image,11,2+120+60+0_1+60+120+1_2+120+120+2,2+120+120+2
1513011460,52b84b69a1d1410f1c1efadb7fc47c82,Form,55,3,image,11,_REACTION_TIME_,2279
1513011460,52b84b69a1d1410f1c1efadb7fc47c82,Form,148,3,image,29,1+120+120+0_2+120+60+1_2+60+120+2,1+120+120+0
1513011460,52b84b69a1d1410f1c1efadb7fc47c82,Form,148,3,image,29,_REACTION_TIME_,3028
1513011460,52b84b69a1d1410f1c1efadb7fc47c82,Form,49,3,image,10,2+120+60+0_1+120+60+1_2+120+120+2,2+120+120+2
1513011460,52b84b69a1d1410f1c1efadb7fc47c82,Form,49,3,image,10,_REACTION_TIME_,3084
1513011460,52b84b69a1d1410f1c1efadb7fc47c82,Form,1,0,debrief,NULL,purpose,decision making
1513011460,52b84b69a1d1410f1c1efadb7fc47c82,Form,1,0,debrief,NULL,comments,
1513011460,52b84b69a1d1410f1c1efadb7fc47c82,Form,1,0,debrief,NULL,language,native
1513011460,52b84b69a1d1410f1c1efadb7fc47c82,Form,1,0,debrief,NULL,_REACTION_TIME_,16168
#
# Results on Monday December 11 2017 16:57:53 UTC.
# USER AGENT: Mozilla/5.0 (Macintosh; Intel Mac OS X 10_13_1) AppleWebKit/537.36 (KHTML, like Gecko) Chrome/62.0.3202.94 Safari/537.36
# Design number was non-random = 77
#
# Columns below this comment are as follows:
# 1. Time results were received.
# 2. MD5 hash of participant's IP address.
# 3. Controller name.
# 4. Item number.
# 5. Element number.
# 6. Type.
# 7. Group.
# 8. Field name.
# 9. Field value.
1513011474,c163f8f41d3049cca4636e3f1afc905b,Form,0,0,intro,NULL,_REACTION_TIME_,13148
1513011474,c163f8f41d3049cca4636e3f1afc905b,Form,137,3,image,27,2+120+60+0_1+120+60+1_2+60+120+2,1+120+60+1
1513011474,c163f8f41d3049cca4636e3f1afc905b,Form,137,3,image,27,_REACTION_TIME_,15442
1513011474,c163f8f41d3049cca4636e3f1afc905b,Form,81,3,image,16,1+60+120+0_1+120+60+1_1+120+120+2,1+120+60+1
1513011474,c163f8f41d3049cca4636e3f1afc905b,Form,81,3,image,16,_REACTION_TIME_,7023
1513011474,c163f8f41d3049cca4636e3f1afc905b,Form,93,3,image,18,1+120+120+0_2+60+120+1_1+120+60+2,2+60+120+1
1513011474,c163f8f41d3049cca4636e3f1afc905b,Form,93,3,image,18,_REACTION_TIME_,5312
1513011474,c163f8f41d3049cca4636e3f1afc905b,Form,125,3,image,25,2+60+120+0_1+120+60+1_2+120+60+2,2+120+60+2
1513011474,c163f8f41d3049cca4636e3f1afc905b,Form,125,3,image,25,_REACTION_TIME_,7086
1513011474,c163f8f41d3049cca4636e3f1afc905b,Form,156,3,image,31,2+120+120+0_2+60+120+1_1+60+120+2,2+120+120+0
1513011474,c163f8f41d3049cca4636e3f1afc905b,Form,156,3,image,31,_REACTION_TIME_,44764
1513011474,c163f8f41d3049cca4636e3f1afc905b,Form,69,3,image,14,2+120+120+0_2+120+60+1_1+120+120+2,1+120+120+2
1513011474,c163f8f41d3049cca4636e3f1afc905b,Form,69,3,image,14,_REACTION_TIME_,3799
1513011474,c163f8f41d3049cca4636e3f1afc905b,Form,169,3,image,34,2+120+60+0_2+60+120+1_1+60+120+2,1+60+120+2
1513011474,c163f8f41d3049cca4636e3f1afc905b,Form,169,3,image,34,_REACTION_TIME_,4315
1513011474,c163f8f41d3049cca4636e3f1afc905b,Form,18,3,image,3,1+120+60+0_2+120+60+1_1+120+120+2,2+120+60+1
1513011474,c163f8f41d3049cca4636e3f1afc905b,Form,18,3,image,3,_REACTION_TIME_,3219
1513011474,c163f8f41d3049cca4636e3f1afc905b,Form,119,3,image,24,1+120+120+0_2+120+60+1_1+60+120+2,1+120+120+0
1513011474,c163f8f41d3049cca4636e3f1afc905b,Form,119,3,image,24,_REACTION_TIME_,5325
1513011474,c163f8f41d3049cca4636e3f1afc905b,Form,87,3,image,17,1+120+120+0_2+60+120+1_2+120+60+2,1+120+120+0
1513011474,c163f8f41d3049cca4636e3f1afc905b,Form,87,3,image,17,_REACTION_TIME_,4142
1513011474,c163f8f41d3049cca4636e3f1afc905b,Form,168,3,image,33,1+120+60+0_1+60+120+1_2+120+120+2,2+120+120+2
1513011474,c163f8f41d3049cca4636e3f1afc905b,Form,168,3,image,33,_REACTION_TIME_,2771
1513011474,c163f8f41d3049cca4636e3f1afc905b,Form,100,3,image,20,1+120+120+0_2+60+120+1_2+120+60+2,2+60+120+1
1513011474,c163f8f41d3049cca4636e3f1afc905b,Form,100,3,image,20,_REACTION_TIME_,5131
1513011474,c163f8f41d3049cca4636e3f1afc905b,Form,50,3,image,10,2+120+120+0_2+60+120+1_1+120+60+2,2+60+120+1
1513011474,c163f8f41d3049cca4636e3f1afc905b,Form,50,3,image,10,_REACTION_TIME_,5182
1513011474,c163f8f41d3049cca4636e3f1afc905b,Form,56,3,image,11,1+120+120+0_2+60+120+1_1+60+120+2,2+60+120+1
1513011474,c163f8f41d3049cca4636e3f1afc905b,Form,56,3,image,11,_REACTION_TIME_,61014
1513011474,c163f8f41d3049cca4636e3f1afc905b,Form,144,3,image,29,1+120+120+0_1+60+120+1_2+60+120+2,1+120+120+0
1513011474,c163f8f41d3049cca4636e3f1afc905b,Form,144,3,image,29,_REACTION_TIME_,4916
1513011474,c163f8f41d3049cca4636e3f1afc905b,Form,150,3,image,30,1+120+120+0_2+60+120+1_2+120+60+2,2+60+120+1
1513011474,c163f8f41d3049cca4636e3f1afc905b,Form,150,3,image,30,_REACTION_TIME_,6389
1513011474,c163f8f41d3049cca4636e3f1afc905b,Form,37,3,image,7,2+120+60+0_1+120+60+1_1+120+120+2,1+120+120+2
1513011474,c163f8f41d3049cca4636e3f1afc905b,Form,37,3,image,7,_REACTION_TIME_,3316
1513011474,c163f8f41d3049cca4636e3f1afc905b,Form,181,3,image,36,1+120+120+0_2+120+120+1_1+120+60+2,2+120+120+1
1513011474,c163f8f41d3049cca4636e3f1afc905b,Form,181,3,image,36,_REACTION_TIME_,6208
1513011474,c163f8f41d3049cca4636e3f1afc905b,Form,162,3,image,32,1+120+120+0_1+120+60+1_2+120+120+2,1+120+120+0
1513011474,c163f8f41d3049cca4636e3f1afc905b,Form,162,3,image,32,_REACTION_TIME_,3743
1513011474,c163f8f41d3049cca4636e3f1afc905b,Form,19,3,image,4,1+60+120+0_2+120+60+1_2+60+120+2,1+60+120+0
1513011474,c163f8f41d3049cca4636e3f1afc905b,Form,19,3,image,4,_REACTION_TIME_,3639
1513011474,c163f8f41d3049cca4636e3f1afc905b,Form,94,3,image,19,1+120+120+0_1+60+120+1_2+120+60+2,1+120+120+0
1513011474,c163f8f41d3049cca4636e3f1afc905b,Form,94,3,image,19,_REACTION_TIME_,3316
1513011474,c163f8f41d3049cca4636e3f1afc905b,Form,75,3,image,15,1+60+120+0_1+120+120+1_2+120+120+2,2+120+120+2
1513011474,c163f8f41d3049cca4636e3f1afc905b,Form,75,3,image,15,_REACTION_TIME_,2987
1513011474,c163f8f41d3049cca4636e3f1afc905b,Form,43,3,image,8,2+120+120+0_1+60+120+1_1+120+60+2,2+120+120+0
1513011474,c163f8f41d3049cca4636e3f1afc905b,Form,43,3,image,8,_REACTION_TIME_,5351
1513011474,c163f8f41d3049cca4636e3f1afc905b,Form,6,3,image,1,1+120+60+0_1+60+120+1_2+120+120+2,1+120+60+0
1513011474,c163f8f41d3049cca4636e3f1afc905b,Form,6,3,image,1,_REACTION_TIME_,7753
1513011474,c163f8f41d3049cca4636e3f1afc905b,Form,118,3,image,23,1+120+60+0_2+60+120+1_2+120+60+2,2+60+120+1
1513011474,c163f8f41d3049cca4636e3f1afc905b,Form,118,3,image,23,_REACTION_TIME_,4010
1513011474,c163f8f41d3049cca4636e3f1afc905b,Form,143,3,image,28,1+60+120+0_2+120+60+1_1+120+120+2,2+120+60+1
1513011474,c163f8f41d3049cca4636e3f1afc905b,Form,143,3,image,28,_REACTION_TIME_,4156
1513011474,c163f8f41d3049cca4636e3f1afc905b,Form,62,3,image,12,2+120+120+0_1+60+120+1_2+60+120+2,1+60+120+1
1513011474,c163f8f41d3049cca4636e3f1afc905b,Form,62,3,image,12,_REACTION_TIME_,3044
1513011474,c163f8f41d3049cca4636e3f1afc905b,Form,175,3,image,35,1+120+60+0_2+120+60+1_1+60+120+2,2+120+60+1
1513011474,c163f8f41d3049cca4636e3f1afc905b,Form,175,3,image,35,_REACTION_TIME_,33462
1513011474,c163f8f41d3049cca4636e3f1afc905b,Form,25,3,image,5,1+60+120+0_2+120+120+1_2+120+60+2,2+120+120+1
1513011474,c163f8f41d3049cca4636e3f1afc905b,Form,25,3,image,5,_REACTION_TIME_,3019
1513011474,c163f8f41d3049cca4636e3f1afc905b,Form,112,3,image,22,2+60+120+0_1+120+60+1_2+120+60+2,1+120+60+1
1513011474,c163f8f41d3049cca4636e3f1afc905b,Form,112,3,image,22,_REACTION_TIME_,3367
1513011474,c163f8f41d3049cca4636e3f1afc905b,Form,12,3,image,2,2+120+60+0_1+120+120+1_1+120+60+2,1+120+120+1
1513011474,c163f8f41d3049cca4636e3f1afc905b,Form,12,3,image,2,_REACTION_TIME_,2567
1513011474,c163f8f41d3049cca4636e3f1afc905b,Form,131,3,image,26,1+120+120+0_1+60+120+1_1+120+60+2,1+120+120+0
1513011474,c163f8f41d3049cca4636e3f1afc905b,Form,131,3,image,26,_REACTION_TIME_,2461
1513011474,c163f8f41d3049cca4636e3f1afc905b,Form,44,3,image,9,1+120+120+0_2+120+60+1_1+60+120+2,1+120+120+0
1513011474,c163f8f41d3049cca4636e3f1afc905b,Form,44,3,image,9,_REACTION_TIME_,3697
1513011474,c163f8f41d3049cca4636e3f1afc905b,Form,31,3,image,6,1+120+60+0_2+60+120+1_2+120+60+2,1+120+60+0
1513011474,c163f8f41d3049cca4636e3f1afc905b,Form,31,3,image,6,_REACTION_TIME_,5331
1513011474,c163f8f41d3049cca4636e3f1afc905b,Form,106,3,image,21,2+120+120+0_1+120+120+1_2+60+120+2,1+120+120+1
1513011474,c163f8f41d3049cca4636e3f1afc905b,Form,106,3,image,21,_REACTION_TIME_,4960
1513011474,c163f8f41d3049cca4636e3f1afc905b,Form,68,3,image,13,2+120+120+0_1+120+120+1_2+120+60+2,2+120+120+0
1513011474,c163f8f41d3049cca4636e3f1afc905b,Form,68,3,image,13,_REACTION_TIME_,5192
1513011474,c163f8f41d3049cca4636e3f1afc905b,Form,1,0,debrief,NULL,purpose,see which items people selected on some of them the big or little?
1513011474,c163f8f41d3049cca4636e3f1afc905b,Form,1,0,debrief,NULL,comments,have a wonderful day!
1513011474,c163f8f41d3049cca4636e3f1afc905b,Form,1,0,debrief,NULL,language,native
1513011474,c163f8f41d3049cca4636e3f1afc905b,Form,1,0,debrief,NULL,_REACTION_TIME_,33749
#
# Results on Monday December 11 2017 17:02:27 UTC.
# USER AGENT: Mozilla/5.0 (Windows NT 6.3; Win64; x64) AppleWebKit/537.36 (KHTML, like Gecko) Chrome/62.0.3202.94 Safari/537.36
# Design number was non-random = 80
#
# Columns below this comment are as follows:
# 1. Time results were received.
# 2. MD5 hash of participant's IP address.
# 3. Controller name.
# 4. Item number.
# 5. Element number.
# 6. Type.
# 7. Group.
# 8. Field name.
# 9. Field value.
1513011747,52b84b69a1d1410f1c1efadb7fc47c82,Form,0,0,intro,NULL,_REACTION_TIME_,8526
1513011747,52b84b69a1d1410f1c1efadb7fc47c82,Form,10,3,image,2,1+120+120+0_1+60+120+1_2+60+120+2,1+120+120+0
1513011747,52b84b69a1d1410f1c1efadb7fc47c82,Form,10,3,image,2,_REACTION_TIME_,2817
1513011747,52b84b69a1d1410f1c1efadb7fc47c82,Form,78,3,image,15,1+120+60+0_2+120+60+1_2+120+120+2,2+120+120+2
1513011747,52b84b69a1d1410f1c1efadb7fc47c82,Form,78,3,image,15,_REACTION_TIME_,3666
1513011747,52b84b69a1d1410f1c1efadb7fc47c82,Form,54,3,image,11,1+120+120+0_1+60+120+1_2+60+120+2,1+120+120+0
1513011747,52b84b69a1d1410f1c1efadb7fc47c82,Form,54,3,image,11,_REACTION_TIME_,3676
1513011747,52b84b69a1d1410f1c1efadb7fc47c82,Form,91,3,image,18,2+120+60+0_1+120+60+1_1+60+120+2,1+120+60+1
1513011747,52b84b69a1d1410f1c1efadb7fc47c82,Form,91,3,image,18,_REACTION_TIME_,4837
1513011747,52b84b69a1d1410f1c1efadb7fc47c82,Form,29,3,image,6,1+120+60+0_2+120+60+1_2+60+120+2,1+120+60+0
1513011747,52b84b69a1d1410f1c1efadb7fc47c82,Form,29,3,image,6,_REACTION_TIME_,3014
1513011747,52b84b69a1d1410f1c1efadb7fc47c82,Form,66,3,image,13,1+60+120+0_1+120+60+1_1+120+120+2,1+120+120+2
1513011747,52b84b69a1d1410f1c1efadb7fc47c82,Form,66,3,image,13,_REACTION_TIME_,3410
1513011747,52b84b69a1d1410f1c1efadb7fc47c82,Form,16,3,image,3,1+60+120+0_2+120+60+1_2+60+120+2,2+60+120+2
1513011747,52b84b69a1d1410f1c1efadb7fc47c82,Form,16,3,image,3,_REACTION_TIME_,3935
1513011747,52b84b69a1d1410f1c1efadb7fc47c82,Form,47,3,image,9,1+120+60+0_2+120+120+1_2+60+120+2,2+120+120+1
1513011747,52b84b69a1d1410f1c1efadb7fc47c82,Form,47,3,image,9,_REACTION_TIME_,2850
1513011747,52b84b69a1d1410f1c1efadb7fc47c82,Form,4,3,image,1,2+120+60+0_2+60+120+1_2+120+120+2,2+120+120+2
1513011747,52b84b69a1d1410f1c1efadb7fc47c82,Form,4,3,image,1,_REACTION_TIME_,2957
1513011747,52b84b69a1d1410f1c1efadb7fc47c82,Form,154,3,image,31,1+120+120+0_1+60+120+1_1+120+60+2,1+120+120+0
1513011747,52b84b69a1d1410f1c1efadb7fc47c82,Form,154,3,image,31,_REACTION_TIME_,2850
1513011747,52b84b69a1d1410f1c1efadb7fc47c82,Form,60,3,image,12,2+60+120+0_2+120+120+1_1+120+60+2,2+120+120+1
1513011747,52b84b69a1d1410f1c1efadb7fc47c82,Form,60,3,image,12,_REACTION_TIME_,3180
1513011747,52b84b69a1d1410f1c1efadb7fc47c82,Form,116,3,image,23,1+120+60+0_2+60+120+1_1+60+120+2,2+60+120+1
1513011747,52b84b69a1d1410f1c1efadb7fc47c82,Form,116,3,image,23,_REACTION_TIME_,3710
1513011747,52b84b69a1d1410f1c1efadb7fc47c82,Form,172,3,image,34,1+120+120+0_2+60+120+1_2+120+120+2,1+120+120+0
1513011747,52b84b69a1d1410f1c1efadb7fc47c82,Form,172,3,image,34,_REACTION_TIME_,2835
1513011747,52b84b69a1d1410f1c1efadb7fc47c82,Form,103,3,image,20,1+60+120+0_1+120+120+1_2+60+120+2,1+120+120+1
1513011747,52b84b69a1d1410f1c1efadb7fc47c82,Form,103,3,image,20,_REACTION_TIME_,2830
1513011747,52b84b69a1d1410f1c1efadb7fc47c82,Form,97,3,image,19,1+120+120+0_2+120+120+1_2+120+60+2,2+120+120+1
1513011747,52b84b69a1d1410f1c1efadb7fc47c82,Form,97,3,image,19,_REACTION_TIME_,4036
1513011747,52b84b69a1d1410f1c1efadb7fc47c82,Form,53,3,image,10,1+60+120+0_2+60+120+1_1+120+120+2,1+120+120+2
1513011747,52b84b69a1d1410f1c1efadb7fc47c82,Form,53,3,image,10,_REACTION_TIME_,3148
1513011747,52b84b69a1d1410f1c1efadb7fc47c82,Form,110,3,image,22,1+120+120+0_2+60+120+1_2+120+120+2,1+120+120+0
1513011747,52b84b69a1d1410f1c1efadb7fc47c82,Form,110,3,image,22,_REACTION_TIME_,2941
1513011747,52b84b69a1d1410f1c1efadb7fc47c82,Form,22,3,image,4,2+120+60+0_1+120+120+1_2+120+120+2,1+120+120+1
1513011747,52b84b69a1d1410f1c1efadb7fc47c82,Form,22,3,image,4,_REACTION_TIME_,3399
1513011747,52b84b69a1d1410f1c1efadb7fc47c82,Form,178,3,image,35,1+120+60+0_2+60+120+1_2+120+120+2,2+120+120+2
1513011747,52b84b69a1d1410f1c1efadb7fc47c82,Form,178,3,image,35,_REACTION_TIME_,6759
1513011747,52b84b69a1d1410f1c1efadb7fc47c82,Form,104,3,image,21,2+120+60+0_2+120+120+1_2+60+120+2,2+120+120+1
1513011747,52b84b69a1d1410f1c1efadb7fc47c82,Form,104,3,image,21,_REACTION_TIME_,5758
1513011747,52b84b69a1d1410f1c1efadb7fc47c82,Form,41,3,image,8,2+120+60+0_2+60+120+1_1+60+120+2,2+60+120+1
1513011747,52b84b69a1d1410f1c1efadb7fc47c82,Form,41,3,image,8,_REACTION_TIME_,4276
1513011747,52b84b69a1d1410f1c1efadb7fc47c82,Form,35,3,image,7,2+120+120+0_1+60+120+1_1+120+60+2,2+120+120+0
1513011747,52b84b69a1d1410f1c1efadb7fc47c82,Form,35,3,image,7,_REACTION_TIME_,3668
1513011747,52b84b69a1d1410f1c1efadb7fc47c82,Form,85,3,image,17,1+120+120+0_2+120+120+1_2+60+120+2,1+120+120+0
1513011747,52b84b69a1d1410f1c1efadb7fc47c82,Form,85,3,image,17,_REACTION_TIME_,2541
1513011747,52b84b69a1d1410f1c1efadb7fc47c82,Form,122,3,image,24,2+120+120+0_1+60+120+1_1+120+60+2,2+120+120+0
1513011747,52b84b69a1d1410f1c1efadb7fc47c82,Form,122,3,image,24,_REACTION_TIME_,3435
1513011747,52b84b69a1d1410f1c1efadb7fc47c82,Form,166,3,image,33,1+60+120+0_1+120+120+1_2+60+120+2,1+120+120+1
1513011747,52b84b69a1d1410f1c1efadb7fc47c82,Form,166,3,image,33,_REACTION_TIME_,4998
1513011747,52b84b69a1d1410f1c1efadb7fc47c82,Form,79,3,image,16,2+120+120+0_2+60+120+1_2+120+60+2,2+120+120+0
1513011747,52b84b69a1d1410f1c1efadb7fc47c82,Form,79,3,image,16,_REACTION_TIME_,2638
